File: Force Calculations/Tensile Testing Results/Braided - 2.csv
Time,Displacement,Force
(s),(mm),(kN)
"0.0000","0.0000","-0.0005"
"0.3000","0.4917","0.0035"
"0.6000","1.0015","0.0060"
"0.9000","1.5032","0.0076"
"1.2000","2.0032","0.0087"
"1.5000","2.5029","0.0094"
"1.8000","3.0032","0.0099"
"2.1000","3.5033","0.0102"
"2.4000","4.0032","0.0110"
"2.7000","4.5029","0.0113"
"3.0000","5.0033","0.0118"
"3.3000","5.5035","0.0125"
"3.6000","6.0033","0.0130"
"3.9000","6.5032","0.0137"
"4.2000","7.0033","0.0143"
"4.5000","7.5033","0.0148"
"4.8000","8.0033","0.0153"
"5.1000","8.5031","0.0158"
"5.4000","9.0033","0.0161"
"5.7000","9.5035","0.0165"
"6.0000","10.0033","0.0168"
"6.3000","10.5031","0.0172"
"6.6000","11.0031","0.0175"
"6.9000","11.5033","0.0178"
"7.2000","12.0032","0.0180"
"7.5000","12.5031","0.0182"
"7.8000","13.0033","0.0185"
"8.1000","13.5035","0.0188"
"8.4000","14.0032","0.0191"
"8.7000","14.5031","0.0194"
"9.0000","15.0032","0.0197"
"9.3000","15.5033","0.0199"
"9.6000","16.0033","0.0201"
"9.9000","16.5032","0.0204"
"10.2000","17.0033","0.0206"
"10.5000","17.5035","0.0207"
"10.8000","18.0033","0.0209"
"11.1000","18.5031","0.0211"
"11.4000","19.0032","0.0213"
"11.7000","19.5033","0.0214"
"12.0000","20.0032","0.0215"
"12.3000","20.5031","0.0217"
"12.6000","21.0033","0.0218"
"12.9000","21.5035","0.0219"
"13.2000","22.0033","0.0220"
"13.5000","22.5031","0.0220"
"13.8000","23.0033","0.0220"
"14.1000","23.5033","0.0220"
"14.4000","24.0033","0.0219"
"14.7000","24.5031","0.0220"
"15.0000","25.0033","0.0221"
"15.3000","25.5035","0.0222"
"15.6000","26.0032","0.0223"
"15.9000","26.5029","0.0224"
"16.2000","27.0032","0.0224"
"16.5000","27.5032","0.0225"
"16.8000","28.0031","0.0225"
"17.1000","28.5031","0.0225"
"17.4000","29.0032","0.0226"
"17.7000","29.5035","0.0226"
"18.0000","30.0033","0.0227"
"18.3000","30.5032","0.0228"
"18.6000","31.0033","0.0229"
"18.9000","31.5035","0.0231"
"19.2000","32.0033","0.0233"
"19.5000","32.5032","0.0234"
"19.8000","33.0033","0.0236"
"20.1000","33.5035","0.0237"
"20.4000","34.0033","0.0238"
"20.7000","34.5029","0.0239"
"21.0000","35.0031","0.0242"
"21.3000","35.5033","0.0243"
"21.6000","36.0032","0.0246"
"21.9000","36.5031","0.0248"
"22.2000","37.0033","0.0249"
"22.5000","37.5035","0.0251"
"22.8000","38.0033","0.0252"
"23.1000","38.5031","0.0253"
"23.4000","39.0032","0.0254"
"23.7000","39.5033","0.0254"
"24.0000","40.0032","0.0254"
"24.3000","40.5032","0.0255"
"24.6000","41.0033","0.0254"
"24.9000","41.5035","0.0254"
"25.2000","42.0033","0.0251"
"25.5000","42.5029","0.0249"
"25.8000","43.0031","0.0247"
"26.1000","43.5032","0.0247"
"26.4000","44.0031","0.0248"
"26.7000","44.5031","0.0250"
"27.0000","45.0033","0.0251"
"27.3000","45.5035","0.0252"
"27.6000","46.0033","0.0252"
"27.9000","46.5031","0.0253"
"28.2000","47.0033","0.0254"
"28.5000","47.5035","0.0255"
"28.8000","48.0032","0.0257"
"29.1000","48.5032","0.0258"
"29.4000","49.0033","0.0259"
"29.7000","49.5035","0.0259"
"30.0000","50.0032","0.0259"
"30.3000","50.5029","0.0260"
"30.6000","51.0032","0.0260"
"30.9000","51.5033","0.0261"
"31.2000","52.0032","0.0262"
"31.5000","52.5031","0.0262"
"31.8000","53.0032","0.0263"
"32.1000","53.5035","0.0263"
"32.4000","54.0033","0.0264"
"32.7000","54.5032","0.0265"
"33.0000","55.0033","0.0266"
"33.3000","55.5033","0.0267"
"33.6000","56.0033","0.0267"
"33.9000","56.5032","0.0268"
"34.2000","57.0035","0.0268"
"34.5000","57.5035","0.0268"
"34.8000","58.0032","0.0268"
"35.1000","58.5029","0.0269"
"35.4000","59.0032","0.0270"
"35.7000","59.5032","0.0270"
"36.0000","60.0032","0.0271"
"36.3000","60.5031","0.0272"
"36.6000","61.0033","0.0273"
"36.9000","61.5035","0.0274"
"37.2000","62.0033","0.0274"
"37.5000","62.5031","0.0275"
"37.8000","63.0033","0.0276"
"38.1000","63.5035","0.0276"
"38.4000","64.0032","0.0276"
"38.7000","64.5031","0.0276"
"39.0000","65.0033","0.0276"
"39.3000","65.5036","0.0277"
"39.6000","66.0033","0.0277"
"39.9000","66.5031","0.0276"
"40.2000","67.0032","0.0274"
"40.5000","67.5032","0.0273"
"40.8000","68.0031","0.0271"
"41.1000","68.5031","0.0269"
"41.4000","69.0032","0.0265"
"41.7000","69.5035","0.0253"
"42.0000","70.0033","0.0251"
"42.3000","70.5032","0.0251"
"42.6000","71.0032","0.0251"
"42.9000","71.5033","0.0250"
"43.2000","72.0033","0.0251"
"43.5000","72.5031","0.0251"
"43.8000","73.0033","0.0252"
"44.1000","73.5035","0.0253"
"44.4000","74.0032","0.0253"
"44.7000","74.5031","0.0254"
"45.0000","75.0032","0.0254"
"45.3000","75.5033","0.0255"
"45.6000","76.0032","0.0255"
"45.9000","76.5031","0.0255"
"46.2000","77.0032","0.0256"
"46.5000","77.5033","0.0256"
"46.8000","78.0033","0.0257"
"47.1000","78.5032","0.0257"
"47.4000","79.0033","0.0258"
"47.7000","79.5033","0.0259"
"48.0000","80.0033","0.0259"
"48.3000","80.5031","0.0261"
"48.6000","81.0033","0.0262"
"48.9000","81.5034","0.0263"
"49.2000","82.0033","0.0265"
"49.5000","82.5031","0.0266"
"49.8000","83.0032","0.0267"
"50.1000","83.5032","0.0269"
"50.4000","84.0032","0.0271"
"50.7000","84.5031","0.0272"
"51.0000","85.0032","0.0273"
"51.3000","85.5033","0.0274"
"51.6000","86.0033","0.0275"
"51.9000","86.5031","0.0276"
"52.2000","87.0032","0.0277"
"52.5000","87.5035","0.0278"
"52.8000","88.0032","0.0279"
"53.1000","88.5031","0.0280"
"53.4000","89.0033","0.0281"
"53.7000","89.5034","0.0282"
"54.0000","90.0032","0.0283"
"54.3000","90.5032","0.0283"
"54.6000","91.0032","0.0282"
"54.9000","91.5033","0.0281"
"55.2000","92.0032","0.0278"
"55.5000","92.5029","0.0272"
"55.8000","93.0033","0.0249"
"56.1000","93.5033","0.0237"
"56.4000","94.0033","0.0234"
"56.7000","94.5032","0.0234"
"57.0000","95.0033","0.0235"
"57.3000","95.5035","0.0237"
"57.6000","96.0032","0.0238"
"57.9000","96.5031","0.0240"
"58.2000","97.0033","0.0243"
"58.5000","97.5033","0.0245"
"58.8000","98.0032","0.0248"
"59.1000","98.5031","0.0250"
"59.4000","99.0032","0.0253"
"59.7000","99.5032","0.0255"
"60.0000","100.0032","0.0257"
"60.3000","100.5031","0.0260"
"60.6000","101.0032","0.0261"
"60.9000","101.5033","0.0264"
"61.2000","102.0032","0.0265"
"61.5000","102.5032","0.0268"
"61.8000","103.0033","0.0270"
"62.1000","103.5033","0.0272"
"62.4000","104.0032","0.0274"
"62.7000","104.5032","0.0276"
"63.0000","105.0033","0.0278"
"63.3000","105.5033","0.0280"
"63.6000","106.0032","0.0282"
"63.9000","106.5031","0.0283"
"64.2000","107.0031","0.0285"
"64.5000","107.5033","0.0287"
"64.8000","108.0031","0.0288"
"65.1000","108.5031","0.0290"
"65.4000","109.0033","0.0292"
"65.7000","109.5033","0.0293"
"66.0000","110.0033","0.0294"
"66.3000","110.5032","0.0295"
"66.6000","111.0033","0.0297"
"66.9000","111.5034","0.0299"
"67.2000","112.0032","0.0301"
"67.5000","112.5031","0.0302"
"67.8000","113.0033","0.0303"
"68.1000","113.5035","0.0304"
"68.4000","114.0032","0.0305"
"68.7000","114.5029","0.0306"
"69.0000","115.0032","0.0307"
"69.3000","115.5032","0.0309"
"69.6000","116.0032","0.0311"
"69.9000","116.5029","0.0312"
"70.2000","117.0032","0.0313"
"70.5000","117.5034","0.0315"
"70.8000","118.0033","0.0316"
"71.1000","118.5031","0.0318"
"71.4000","119.0033","0.0319"
"71.7000","119.5035","0.0321"
"72.0000","120.0033","0.0322"
"72.3000","120.5032","0.0323"
"72.6000","121.0033","0.0324"
"72.9000","121.5034","0.0326"
"73.2000","122.0032","0.0327"
"73.5000","122.5031","0.0328"
"73.8000","123.0032","0.0329"
"74.1000","123.5032","0.0330"
"74.4000","124.0031","0.0331"
"74.7000","124.5031","0.0332"
"75.0000","125.0033","0.0334"
"75.3000","125.5033","0.0334"
"75.6000","126.0032","0.0335"
"75.9000","126.5030","0.0336"
"76.2000","127.0033","0.0337"
"76.5000","127.5033","0.0339"
"76.8000","128.0032","0.0340"
"77.1000","128.5032","0.0341"
"77.4000","129.0033","0.0342"
"77.7000","129.5034","0.0343"
"78.0000","130.0032","0.0344"
"78.3000","130.5029","0.0345"
"78.6000","131.0032","0.0345"
"78.9000","131.5033","0.0346"
"79.2000","132.0032","0.0347"
"79.5000","132.5029","0.0347"
"79.8000","133.0033","0.0347"
"80.1000","133.5034","0.0347"
"80.4000","134.0032","0.0347"
"80.7000","134.5030","0.0346"
"81.0000","135.0033","0.0343"
"81.3000","135.5033","0.0339"
"81.6000","136.0033","0.0335"
"81.9000","136.5030","0.0333"
"82.2000","137.0033","0.0331"
"82.5000","137.5034","0.0331"
"82.8000","138.0032","0.0332"
"83.1000","138.5029","0.0333"
"83.4000","139.0032","0.0334"
"83.7000","139.5033","0.0335"
"84.0000","140.0032","0.0337"
"84.3000","140.5030","0.0339"
"84.6000","141.0033","0.0340"
"84.9000","141.5033","0.0342"
"85.2000","142.0033","0.0344"
"85.5000","142.5030","0.0346"
"85.8000","143.0032","0.0347"
"86.1000","143.5034","0.0347"
"86.4000","144.0033","0.0348"
"86.7000","144.5032","0.0348"
"87.0000","145.0034","0.0348"
"87.3000","145.5034","0.0347"
"87.6000","146.0032","0.0347"
"87.9000","146.5031","0.0347"
"88.2000","147.0032","0.0346"
"88.5000","147.5031","0.0347"
"88.8000","148.0030","0.0347"
"89.1000","148.5030","0.0347"
"89.4000","149.0032","0.0348"
"89.7000","149.5034","0.0348"
"90.0000","150.0032","0.0349"
"90.3000","150.5030","0.0350"
"90.6000","151.0033","0.0351"
"90.9000","151.5033","0.0351"
"91.2000","152.0032","0.0352"
"91.5000","152.5030","0.0352"
"91.8000","153.0034","0.0351"
"92.1000","153.5034","0.0350"
"92.4000","154.0032","0.0346"
"92.7000","154.5031","0.0334"
"93.0000","155.0032","0.0328"
"93.3000","155.5033","0.0329"
"93.6000","156.0032","0.0332"
"93.9000","156.5030","0.0335"
"94.2000","157.0032","0.0339"
"94.5000","157.5033","0.0342"
"94.8000","158.0032","0.0345"
"95.1000","158.5030","0.0348"
"95.4000","159.0032","0.0351"
"95.7000","159.5033","0.0354"
"96.0000","160.0032","0.0356"
"96.3000","160.5032","0.0358"
"96.6000","161.0033","0.0360"
"96.9000","161.5036","0.0362"
"97.2000","162.0032","0.0364"
"97.5000","162.5030","0.0366"
"97.8000","163.0030","0.0368"
"98.1000","163.5032","0.0370"
"98.4000","164.0031","0.0371"
"98.7000","164.5030","0.0371"
"99.0000","165.0033","0.0372"
"99.3000","165.5034","0.0373"
"99.6000","166.0033","0.0374"
"99.9000","166.5030","0.0376"
"100.2000","167.0033","0.0377"
"100.5000","167.5033","0.0378"
"100.8000","168.0033","0.0380"
"101.1000","168.5032","0.0381"
"101.4000","169.0033","0.0382"
"101.7000","169.5034","0.0383"
"102.0000","170.0033","0.0384"
"102.3000","170.5030","0.0384"
"102.6000","171.0030","0.0385"
"102.9000","171.5033","0.0385"
"103.2000","172.0031","0.0385"
"103.5000","172.5030","0.0385"
"103.8000","173.0033","0.0385"
"104.1000","173.5034","0.0384"
"104.4000","174.0033","0.0384"
"104.7000","174.5032","0.0383"
"105.0000","175.0032","0.0383"
"105.3000","175.5034","0.0382"
"105.6000","176.0032","0.0382"
"105.9000","176.5032","0.0382"
"106.2000","177.0033","0.0382"
"106.5000","177.5034","0.0382"
"106.8000","178.0032","0.0382"
"107.1000","178.5032","0.0382"
"107.4000","179.0031","0.0383"
"107.7000","179.5032","0.0383"
"108.0000","180.0032","0.0382"
"108.3000","180.5030","0.0382"
"108.6000","181.0033","0.0378"
"108.9000","181.5033","0.0377"
"109.2000","182.0033","0.0377"
"109.5000","182.5031","0.0378"
"109.8000","183.0033","0.0380"
"110.1000","183.5034","0.0381"
"110.4000","184.0032","0.0383"
"110.7000","184.5032","0.0385"
"111.0000","185.0034","0.0386"
"111.3000","185.5034","0.0388"
"111.6000","186.0032","0.0390"
"111.9000","186.5029","0.0392"
"112.2000","187.0031","0.0393"
"112.5000","187.5032","0.0395"
"112.8000","188.0030","0.0397"
"113.1000","188.5029","0.0398"
"113.4000","189.0033","0.0400"
"113.7000","189.5034","0.0401"
"114.0000","190.0033","0.0401"
"114.3000","190.5032","0.0402"
"114.6000","191.0032","0.0402"
"114.9000","191.5033","0.0399"
"115.2000","192.0032","0.0398"
"115.5000","192.5032","0.0399"
"115.8000","193.0033","0.0400"
"116.1000","193.5033","0.0401"
"116.4000","194.0032","0.0403"
"116.7000","194.5030","0.0405"
"117.0000","195.0032","0.0407"
"117.3000","195.5032","0.0409"
"117.6000","196.0030","0.0410"
"117.9000","196.5030","0.0412"
"118.2000","197.0032","0.0414"
"118.5000","197.5034","0.0416"
"118.8000","198.0033","0.0418"
"119.1000","198.5032","0.0419"
"119.4000","199.0033","0.0421"
"119.7000","199.5034","0.0422"
"120.0000","200.0033","0.0423"
"120.3000","200.5030","0.0425"
"120.6000","201.0033","0.0426"
"120.9000","201.5034","0.0426"
"121.2000","202.0033","0.0424"
"121.5000","202.5029","0.0415"
"121.8000","203.0032","0.0399"
"122.1000","203.5032","0.0395"
"122.4000","204.0032","0.0396"
"122.7000","204.5029","0.0398"
"123.0000","205.0032","0.0400"
"123.3000","205.5033","0.0402"
"123.6000","206.0033","0.0405"
"123.9000","206.5030","0.0406"
"124.2000","207.0033","0.0408"
"124.5000","207.5033","0.0411"
"124.8000","208.0032","0.0412"
"125.1000","208.5032","0.0413"
"125.4000","209.0033","0.0415"
"125.7000","209.5034","0.0416"
"126.0000","210.0033","0.0416"
"126.3000","210.5029","0.0414"
"126.6000","211.0032","0.0395"
"126.9000","211.5033","0.0389"
"127.2000","212.0032","0.0389"
"127.5000","212.5031","0.0391"
"127.8000","213.0032","0.0395"
"128.1000","213.5034","0.0399"
"128.4000","214.0033","0.0403"
"128.7000","214.5030","0.0407"
"129.0000","215.0033","0.0410"
"129.3000","215.5033","0.0413"
"129.6000","216.0033","0.0416"
"129.9000","216.5032","0.0418"
"130.2000","217.0033","0.0420"
"130.5000","217.5034","0.0422"
"130.8000","218.0032","0.0423"
"131.1000","218.5030","0.0423"
"131.4000","219.0032","0.0423"
"131.7000","219.5033","0.0423"
"132.0000","220.0032","0.0424"
"132.3000","220.5030","0.0425"
"132.6000","221.0033","0.0425"
"132.9000","221.5033","0.0426"
"133.2000","222.0033","0.0427"
"133.5000","222.5030","0.0427"
"133.8000","223.0033","0.0428"
"134.1000","223.5034","0.0429"
"134.4000","224.0033","0.0429"
"134.7000","224.5030","0.0429"
"135.0000","225.0033","0.0429"
"135.3000","225.5034","0.0430"
"135.6000","226.0032","0.0430"
"135.9000","226.5029","0.0430"
"136.2000","227.0030","0.0430"
"136.5000","227.5033","0.0431"
"136.8000","228.0032","0.0431"
"137.1000","228.5032","0.0431"
"137.4000","229.0033","0.0432"
"137.7000","229.5034","0.0432"
"138.0000","230.0033","0.0431"
"138.3000","230.5032","0.0431"
"138.6000","231.0032","0.0431"
"138.9000","231.5034","0.0430"
"139.2000","232.0032","0.0429"
"139.5000","232.5030","0.0428"
"139.8000","233.0032","0.0426"
"140.1000","233.5036","0.0424"
"140.4000","234.0032","0.0423"
"140.7000","234.5032","0.0423"
"141.0000","235.0030","0.0423"
"141.3000","235.5033","0.0423"
"141.6000","236.0032","0.0424"
"141.9000","236.5029","0.0424"
"142.2000","237.0032","0.0425"
"142.5000","237.5033","0.0426"
"142.8000","238.0033","0.0428"
"143.1000","238.5030","0.0429"
"143.4000","239.0032","0.0430"
"143.7000","239.5034","0.0432"
"144.0000","240.0033","0.0433"
"144.3000","240.5032","0.0435"
"144.6000","241.0033","0.0436"
"144.9000","241.5034","0.0437"
"145.2000","242.0032","0.0438"
"145.5000","242.5029","0.0438"
"145.8000","243.0032","0.0438"
"146.1000","243.5033","0.0438"
"146.4000","244.0033","0.0436"
"146.7000","244.5030","0.0434"
"147.0000","245.0033","0.0435"
"147.3000","245.5034","0.0436"
"147.6000","246.0033","0.0437"
"147.9000","246.5030","0.0438"
"148.2000","247.0032","0.0440"
"148.5000","247.5034","0.0442"
"148.8000","248.0033","0.0443"
"149.1000","248.5032","0.0445"
"149.4000","249.0033","0.0446"
"149.7000","249.5033","0.0448"
"150.0000","250.0032","0.0449"
"150.3000","250.5029","0.0450"
"150.6000","251.0030","0.0450"
"150.9000","251.5034","0.0450"
"151.2000","252.0032","0.0449"
"151.5000","252.5030","0.0447"
"151.8000","253.0033","0.0445"
"152.1000","253.5033","0.0443"
"152.4000","254.0033","0.0441"
"152.7000","254.5032","0.0438"
"153.0000","255.0032","0.0437"
"153.3000","255.5035","0.0437"
"153.6000","256.0031","0.0438"
"153.9000","256.5031","0.0439"
"154.2000","257.0034","0.0441"
"154.5000","257.5034","0.0443"
"154.8000","258.0031","0.0446"
"155.1000","258.5029","0.0448"
"155.4000","259.0033","0.0450"
"155.7000","259.5033","0.0452"
"156.0000","260.0030","0.0454"
"156.3000","260.5030","0.0456"
"156.6000","261.0033","0.0458"
"156.9000","261.5034","0.0460"
"157.2000","262.0033","0.0462"
"157.5000","262.5030","0.0463"
"157.8000","263.0031","0.0465"
"158.1000","263.5034","0.0466"
"158.4000","264.0034","0.0468"
"158.7000","264.5031","0.0469"
"159.0000","265.0033","0.0470"
"159.3000","265.5034","0.0471"
"159.6000","266.0033","0.0471"
"159.9000","266.5030","0.0471"
"160.2000","267.0030","0.0471"
"160.5000","267.5033","0.0471"
"160.8000","268.0031","0.0469"
"161.1000","268.5032","0.0467"
"161.4000","269.0031","0.0466"
"161.7000","269.5034","0.0465"
"162.0000","270.0031","0.0465"
"162.3000","270.5030","0.0464"
"162.6000","271.0031","0.0464"
"162.9000","271.5033","0.0464"
"163.2000","272.0033","0.0464"
"163.5000","272.5031","0.0464"
"163.8000","273.0033","0.0466"
"164.1000","273.5034","0.0467"
"164.4000","274.0033","0.0469"
"164.7000","274.5029","0.0470"
"165.0000","275.0030","0.0470"
"165.3000","275.5033","0.0467"
"165.6000","276.0031","0.0464"
"165.9000","276.5029","0.0463"
"166.2000","277.0031","0.0463"
"166.5000","277.5034","0.0463"
"166.8000","278.0033","0.0463"
"167.1000","278.5030","0.0463"
"167.4000","279.0033","0.0463"
"167.7000","279.5034","0.0461"
"168.0000","280.0034","0.0457"
"168.3000","280.5031","0.0452"
"168.6000","281.0033","0.0448"
"168.9000","281.5034","0.0444"
"169.2000","282.0033","0.0442"
"169.5000","282.5030","0.0441"
"169.8000","283.0031","0.0440"
"170.1000","283.5033","0.0438"
"170.4000","284.0030","0.0434"
"170.7000","284.5030","0.0421"
"171.0000","285.0033","0.0356"
"171.3000","285.5034","0.0349"
"171.6000","286.0033","0.0351"
"171.9000","286.5030","0.0355"
"172.2000","287.0033","0.0359"
"172.5000","287.5034","0.0362"
"172.8000","288.0031","0.0366"
"173.1000","288.5031","0.0370"
"173.4000","289.0033","0.0372"
"173.7000","289.5035","0.0372"
"174.0000","290.0031","0.0372"
"174.3000","290.5030","0.0371"
"174.6000","291.0031","0.0367"
"174.9000","291.5033","0.0363"
"175.2000","292.0031","0.0361"
"175.5000","292.5029","0.0360"
"175.8000","293.0033","0.0359"
"176.1000","293.5033","0.0358"
"176.4000","294.0033","0.0357"
"176.7000","294.5030","0.0352"
"177.0000","295.0033","0.0352"
"177.3000","295.5033","0.0354"
"177.6000","296.0033","0.0357"
"177.9000","296.5031","0.0361"
"178.2000","297.0033","0.0366"
"178.5000","297.5033","0.0371"
"178.8000","298.0033","0.0377"
"179.1000","298.5029","0.0381"
"179.4000","299.0031","0.0387"
"179.7000","299.5031","0.0391"
"180.0000","300.0030","0.0396"
"180.3000","300.5030","0.0400"
"180.6000","301.0033","0.0404"
"180.9000","301.5033","0.0407"
"181.2000","302.0031","0.0410"
"181.5000","302.5030","0.0412"
"181.8000","303.0033","0.0415"
"182.1000","303.5034","0.0416"
"182.4000","304.0033","0.0415"
"182.7000","304.5031","0.0413"
"183.0000","305.0033","0.0409"
"183.3000","305.5033","0.0406"
"183.6000","306.0033","0.0404"
"183.9000","306.5030","0.0403"
"184.2000","307.0030","0.0403"
"184.5000","307.5033","0.0405"
"184.8000","308.0033","0.0408"
"185.1000","308.5030","0.0411"
"185.4000","309.0031","0.0415"
"185.7000","309.5033","0.0418"
"186.0000","310.0033","0.0421"
"186.3000","310.5031","0.0424"
"186.6000","311.0031","0.0426"
"186.9000","311.5033","0.0428"
"187.2000","312.0031","0.0428"
"187.5000","312.5032","0.0428"
"187.8000","313.0033","0.0426"
"188.1000","313.5034","0.0423"
"188.4000","314.0031","0.0419"
"188.7000","314.5029","0.0416"
"189.0000","315.0031","0.0413"
"189.3000","315.5031","0.0412"
"189.6000","316.0030","0.0413"
"189.9000","316.5029","0.0414"
"190.2000","317.0033","0.0416"
"190.5000","317.5033","0.0419"
"190.8000","318.0033","0.0422"
"191.1000","318.5031","0.0426"
"191.4000","319.0033","0.0431"
"191.7000","319.5035","0.0435"
"192.0000","320.0033","0.0439"
"192.3000","320.5031","0.0444"
"192.6000","321.0033","0.0449"
"192.9000","321.5033","0.0453"
"193.2000","322.0033","0.0457"
"193.5000","322.5030","0.0462"
"193.8000","323.0030","0.0466"
"194.1000","323.5031","0.0469"
"194.4000","324.0032","0.0473"
"194.7000","324.5030","0.0476"
"195.0000","325.0031","0.0479"
"195.3000","325.5033","0.0482"
"195.6000","326.0031","0.0485"
"195.9000","326.5031","0.0489"
"196.2000","327.0033","0.0492"
"196.5000","327.5033","0.0495"
"196.8000","328.0031","0.0499"
"197.1000","328.5032","0.0503"
"197.4000","329.0034","0.0506"
"197.7000","329.5033","0.0509"
"198.0000","330.0031","0.0512"
"198.3000","330.5029","0.0515"
"198.6000","331.0032","0.0517"
"198.9000","331.5033","0.0517"
"199.2000","332.0031","0.0516"
"199.5000","332.5029","0.0516"
"199.8000","333.0031","0.0515"
"200.1000","333.5033","0.0500"
"200.4000","334.0034","0.0483"
"200.7000","334.5031","0.0476"
"201.0000","335.0034","0.0476"
"201.3000","335.5034","0.0478"
"201.6000","336.0033","0.0477"
"201.9000","336.5031","0.0480"
"202.2000","337.0033","0.0483"
"202.5000","337.5033","0.0487"
"202.8000","338.0033","0.0490"
"203.1000","338.5030","0.0492"
"203.4000","339.0031","0.0495"
"203.7000","339.5033","0.0497"
"204.0000","340.0030","0.0498"
"204.3000","340.5030","0.0497"
"204.6000","341.0031","0.0495"
"204.9000","341.5034","0.0493"
"205.2000","342.0033","0.0491"
"205.5000","342.5032","0.0492"
"205.8000","343.0033","0.0493"
"206.1000","343.5035","0.0495"
"206.4000","344.0031","0.0496"
"206.7000","344.5030","0.0499"
"207.0000","345.0033","0.0502"
"207.3000","345.5034","0.0504"
"207.6000","346.0033","0.0507"
"207.9000","346.5030","0.0510"
"208.2000","347.0032","0.0513"
"208.5000","347.5033","0.0516"
"208.8000","348.0031","0.0518"
"209.1000","348.5030","0.0521"
"209.4000","349.0033","0.0523"
"209.7000","349.5034","0.0525"
"210.0000","350.0034","0.0528"
"210.3000","350.5030","0.0530"
"210.6000","351.0033","0.0532"
"210.9000","351.5033","0.0534"
"211.2000","352.0033","0.0536"
"211.5000","352.5031","0.0538"
"211.8000","353.0034","0.0540"
"212.1000","353.5033","0.0542"
"212.4000","354.0033","0.0544"
"212.7000","354.5030","0.0547"
"213.0000","355.0031","0.0549"
"213.3000","355.5033","0.0552"
"213.6000","356.0031","0.0554"
"213.9000","356.5030","0.0556"
"214.2000","357.0031","0.0558"
"214.5000","357.5033","0.0561"
"214.8000","358.0033","0.0563"
"215.1000","358.5030","0.0566"
"215.4000","359.0033","0.0569"
"215.7000","359.5034","0.0571"
"216.0000","360.0031","0.0573"
"216.3000","360.5030","0.0576"
"216.6000","361.0032","0.0578"
"216.9000","361.5033","0.0580"
"217.2000","362.0033","0.0582"
"217.5000","362.5029","0.0584"
"217.8000","363.0030","0.0586"
"218.1000","363.5034","0.0587"
"218.4000","364.0031","0.0589"
"218.7000","364.5030","0.0590"
"219.0000","365.0033","0.0591"
"219.3000","365.5033","0.0591"
"219.6000","366.0033","0.0590"
"219.9000","366.5031","0.0586"
"220.2000","367.0033","0.0576"
"220.5000","367.5034","0.0561"
"220.8000","368.0033","0.0548"
"221.1000","368.5031","0.0536"
"221.4000","369.0033","0.0532"
"221.7000","369.5034","0.0531"
"222.0000","370.0033","0.0532"
"222.3000","370.5027","0.0533"
"222.6000","371.0031","0.0535"
"222.9000","371.5033","0.0537"
"223.2000","372.0031","0.0539"
"223.5000","372.5029","0.0541"
"223.8000","373.0031","0.0544"
"224.1000","373.5033","0.0546"
"224.4000","374.0033","0.0548"
"224.7000","374.5031","0.0550"
"225.0000","375.0032","0.0552"
"225.3000","375.5033","0.0554"
"225.6000","376.0033","0.0554"
"225.9000","376.5031","0.0556"
"226.2000","377.0033","0.0558"
"226.5000","377.5034","0.0559"
"226.8000","378.0033","0.0561"
"227.1000","378.5030","0.0562"
"227.4000","379.0031","0.0563"
"227.7000","379.5033","0.0564"
"228.0000","380.0031","0.0565"
"228.3000","380.5031","0.0566"
"228.6000","381.0031","0.0566"
"228.9000","381.5033","0.0567"
"229.2000","382.0033","0.0568"
"229.5000","382.5031","0.0568"
"229.8000","383.0033","0.0568"
"230.1000","383.5034","0.0569"
"230.4000","384.0031","0.0570"
"230.7000","384.5030","0.0571"
"231.0000","385.0033","0.0571"
"231.3000","385.5034","0.0572"
"231.6000","386.0033","0.0573"
"231.9000","386.5029","0.0573"
"232.2000","387.0031","0.0573"
"232.5000","387.5034","0.0573"
"232.8000","388.0031","0.0573"
"233.1000","388.5029","0.0574"
"233.4000","389.0033","0.0573"
"233.7000","389.5034","0.0573"
"234.0000","390.0033","0.0571"
"234.3000","390.5030","0.0569"
"234.6000","391.0033","0.0565"
"234.9000","391.5034","0.0559"
"235.2000","392.0033","0.0552"
"235.5000","392.5031","0.0545"
"235.8000","393.0033","0.0537"
"236.1000","393.5034","0.0530"
"236.4000","394.0033","0.0522"
"236.7000","394.5030","0.0513"
"237.0000","395.0031","0.0503"
"237.3000","395.5034","0.0471"
"237.6000","396.0030","0.0453"
"237.9000","396.5030","0.0450"
"238.2000","397.0033","0.0449"
"238.5000","397.5033","0.0450"
"238.8000","398.0033","0.0453"
"239.1000","398.5030","0.0455"
"239.4000","399.0033","0.0458"
"239.7000","399.5036","0.0461"
"240.0000","400.0033","0.0465"
"240.3000","400.5030","0.0468"
"240.6000","401.0031","0.0471"
"240.9000","401.5034","0.0475"
"241.2000","402.0033","0.0479"
"241.5000","402.5029","0.0482"
"241.8000","403.0031","0.0486"
"242.1000","403.5033","0.0489"
"242.4000","404.0031","0.0493"
"242.7000","404.5030","0.0496"
"243.0000","405.0032","0.0499"
"243.3000","405.5033","0.0503"
"243.6000","406.0033","0.0506"
"243.9000","406.5030","0.0509"
"244.2000","407.0033","0.0512"
"244.5000","407.5034","0.0515"
"244.8000","408.0033","0.0518"
"245.1000","408.5031","0.0520"
"245.4000","409.0033","0.0523"
"245.7000","409.5033","0.0526"
"246.0000","410.0033","0.0529"
"246.3000","410.5030","0.0533"
"246.6000","411.0031","0.0536"
"246.9000","411.5033","0.0539"
"247.2000","412.0030","0.0542"
"247.5000","412.5029","0.0545"
"247.8000","413.0033","0.0549"
"248.1000","413.5033","0.0552"
"248.4000","414.0033","0.0555"
"248.7000","414.5030","0.0558"
"249.0000","415.0031","0.0560"
"249.3000","415.5034","0.0562"
"249.6000","416.0033","0.0564"
"249.9000","416.5031","0.0564"
"250.2000","417.0033","0.0564"
"250.5000","417.5034","0.0564"
"250.8000","418.0033","0.0561"
"251.1000","418.5029","0.0552"
"251.4000","419.0030","0.0548"
"251.7000","419.5033","0.0544"
"252.0000","420.0031","0.0544"
"252.3000","420.5030","0.0546"
"252.6000","421.0033","0.0549"
"252.9000","421.5033","0.0551"
"253.2000","422.0033","0.0553"
"253.5000","422.5031","0.0556"
"253.8000","423.0033","0.0561"
"254.1000","423.5034","0.0566"
"254.4000","424.0033","0.0571"
"254.7000","424.5030","0.0575"
"255.0000","425.0033","0.0579"
"255.3000","425.5033","0.0584"
"255.6000","426.0033","0.0588"
"255.9000","426.5029","0.0593"
"256.2000","427.0031","0.0598"
"256.5000","427.5033","0.0603"
"256.8000","428.0031","0.0608"
"257.1000","428.5029","0.0613"
"257.4000","429.0033","0.0617"
"257.7000","429.5034","0.0622"
"258.0000","430.0033","0.0626"
"258.3000","430.5030","0.0631"
"258.6000","431.0031","0.0635"
"258.9000","431.5034","0.0640"
"259.2000","432.0033","0.0645"
"259.5000","432.5030","0.0649"
"259.8000","433.0033","0.0654"
"260.1000","433.5033","0.0658"
"260.4000","434.0033","0.0663"
"260.7000","434.5030","0.0666"
"261.0000","435.0031","0.0670"
"261.3000","435.5031","0.0674"
"261.6000","436.0031","0.0678"
"261.9000","436.5030","0.0682"
"262.2000","437.0033","0.0685"
"262.5000","437.5034","0.0689"
"262.8000","438.0033","0.0693"
"263.1000","438.5031","0.0696"
"263.4000","439.0034","0.0699"
"263.7000","439.5034","0.0702"
"264.0000","440.0031","0.0706"
"264.3000","440.5029","0.0709"
"264.6000","441.0034","0.0711"
"264.9000","441.5034","0.0714"
"265.2000","442.0033","0.0717"
"265.5000","442.5030","0.0720"
"265.8000","443.0031","0.0722"
"266.1000","443.5033","0.0724"
"266.4000","444.0030","0.0726"
"266.7000","444.5029","0.0728"
"267.0000","445.0031","0.0730"
"267.3000","445.5033","0.0731"
"267.6000","446.0033","0.0732"
"267.9000","446.5031","0.0732"
"268.2000","447.0033","0.0732"
"268.5000","447.5034","0.0732"
"268.8000","448.0033","0.0730"
"269.1000","448.5031","0.0727"
"269.4000","449.0033","0.0723"
"269.7000","449.5033","0.0717"
"270.0000","450.0031","0.0709"
"270.3000","450.5029","0.0697"
"270.6000","451.0031","0.0692"
"270.9000","451.5033","0.0690"
"271.2000","452.0030","0.0691"
"271.5000","452.5030","0.0694"
"271.8000","453.0033","0.0697"
"272.1000","453.5034","0.0701"
"272.4000","454.0033","0.0706"
"272.7000","454.5030","0.0711"
"273.0000","455.0033","0.0716"
"273.3000","455.5034","0.0721"
"273.6000","456.0033","0.0726"
"273.9000","456.5030","0.0731"
"274.2000","457.0033","0.0735"
"274.5000","457.5036","0.0740"
"274.8000","458.0033","0.0744"
"275.1000","458.5030","0.0748"
"275.4000","459.0030","0.0753"
"275.7000","459.5033","0.0757"
"276.0000","460.0031","0.0761"
"276.3000","460.5029","0.0764"
"276.6000","461.0033","0.0768"
"276.9000","461.5033","0.0771"
"277.2000","462.0034","0.0774"
"277.5000","462.5031","0.0777"
"277.8000","463.0033","0.0778"
"278.1000","463.5034","0.0780"
"278.4000","464.0031","0.0781"
"278.7000","464.5031","0.0781"
"279.0000","465.0033","0.0780"
"279.3000","465.5034","0.0778"
"279.6000","466.0033","0.0776"
"279.9000","466.5029","0.0771"
"280.2000","467.0033","0.0765"
"280.5000","467.5034","0.0756"
"280.8000","468.0030","0.0747"
"281.1000","468.5030","0.0743"
"281.4000","469.0031","0.0742"
"281.7000","469.5035","0.0741"
"282.0000","470.0033","0.0742"
"282.3000","470.5030","0.0744"
"282.6000","471.0031","0.0746"
"282.9000","471.5034","0.0748"
"283.2000","472.0033","0.0750"
"283.5000","472.5031","0.0752"
"283.8000","473.0033","0.0755"
"284.1000","473.5034","0.0757"
"284.4000","474.0033","0.0760"
"284.7000","474.5030","0.0762"
"285.0000","475.0031","0.0764"
"285.3000","475.5033","0.0766"
"285.6000","476.0030","0.0767"
"285.9000","476.5030","0.0766"
"286.2000","477.0033","0.0763"
"286.5000","477.5033","0.0758"
"286.8000","478.0033","0.0752"
"287.1000","478.5030","0.0747"
"287.4000","479.0033","0.0745"
"287.7000","479.5034","0.0746"
"288.0000","480.0031","0.0746"
"288.3000","480.5029","0.0748"
"288.6000","481.0033","0.0748"
"288.9000","481.5034","0.0746"
"289.2000","482.0033","0.0744"
"289.5000","482.5029","0.0740"
"289.8000","483.0031","0.0735"
"290.1000","483.5033","0.0726"
"290.4000","484.0031","0.0718"
"290.7000","484.5030","0.0713"
"291.0000","485.0031","0.0711"
"291.3000","485.5034","0.0712"
"291.6000","486.0034","0.0715"
"291.9000","486.5031","0.0720"
"292.2000","487.0033","0.0726"
"292.5000","487.5034","0.0732"
"292.8000","488.0033","0.0738"
"293.1000","488.5030","0.0745"
"293.4000","489.0033","0.0752"
"293.7000","489.5034","0.0759"
"294.0000","490.0033","0.0767"
"294.3000","490.5030","0.0774"
"294.6000","491.0031","0.0781"
"294.9000","491.5031","0.0788"
"295.2000","492.0031","0.0795"
"295.5000","492.5029","0.0802"
"295.8000","493.0033","0.0809"
"296.1000","493.5033","0.0816"
"296.4000","494.0033","0.0822"
"296.7000","494.5029","0.0829"
"297.0000","495.0033","0.0835"
"297.3000","495.5034","0.0841"
"297.6000","496.0033","0.0847"
"297.9000","496.5030","0.0853"
"298.2000","497.0034","0.0859"
"298.5000","497.5035","0.0863"
"298.8000","498.0031","0.0869"
"299.1000","498.5029","0.0874"
"299.4000","499.0031","0.0879"
"299.7000","499.5033","0.0884"
"300.0000","500.0031","0.0888"
"300.3000","500.5028","0.0893"
"300.6000","501.0032","0.0897"
"300.9000","501.5034","0.0902"
"301.2000","502.0034","0.0906"
"301.5000","502.5031","0.0909"
"301.8000","503.0032","0.0913"
"302.1000","503.5034","0.0917"
"302.4000","504.0032","0.0921"
"302.7000","504.5030","0.0924"
"303.0000","505.0031","0.0928"
"303.3000","505.5035","0.0931"
"303.6000","506.0033","0.0934"
"303.9000","506.5030","0.0936"
"304.2000","507.0031","0.0940"
"304.5000","507.5032","0.0942"
"304.8000","508.0029","0.0944"
"305.1000","508.5030","0.0947"
"305.4000","509.0031","0.0949"
"305.7000","509.5034","0.0951"
"306.0000","510.0032","0.0952"
"306.3000","510.5030","0.0952"
"306.6000","511.0033","0.0952"
"306.9000","511.5033","0.0951"
"307.2000","512.0031","0.0944"
"307.4920","512.4902","0.0486"