File: Force Calculations/Tensile Testing Results/Braided - 1.csv
Time,Displacement,Force
(s),(mm),(kN)
"0.0000","0.0000","0.0000"
"0.3000","0.4916","0.0020"
"0.6000","1.0015","0.0040"
"0.9000","1.5033","0.0059"
"1.2000","2.0035","0.0075"
"1.5000","2.5033","0.0091"
"1.8000","3.0032","0.0103"
"2.1000","3.5033","0.0115"
"2.4000","4.0033","0.0128"
"2.7000","4.5032","0.0139"
"3.0000","5.0033","0.0150"
"3.3000","5.5036","0.0160"
"3.6000","6.0035","0.0170"
"3.9000","6.5032","0.0179"
"4.2000","7.0032","0.0188"
"4.5000","7.5035","0.0196"
"4.8000","8.0035","0.0204"
"5.1000","8.5033","0.0211"
"5.4000","9.0035","0.0217"
"5.7000","9.5037","0.0223"
"6.0000","10.0036","0.0228"
"6.3000","10.5033","0.0231"
"6.6000","11.0033","0.0233"
"6.9000","11.5035","0.0234"
"7.2000","12.0035","0.0237"
"7.5000","12.5032","0.0242"
"7.8000","13.0033","0.0247"
"8.1000","13.5036","0.0252"
"8.4000","14.0035","0.0256"
"8.7000","14.5032","0.0259"
"9.0000","15.0031","0.0262"
"9.3000","15.5035","0.0266"
"9.6000","16.0035","0.0269"
"9.9000","16.5035","0.0272"
"10.2000","17.0033","0.0275"
"10.5000","17.5037","0.0278"
"10.8000","18.0036","0.0281"
"11.1000","18.5033","0.0283"
"11.4000","19.0032","0.0286"
"11.7000","19.5035","0.0288"
"12.0000","20.0033","0.0290"
"12.3000","20.5032","0.0292"
"12.6000","21.0032","0.0294"
"12.9000","21.5035","0.0295"
"13.2000","22.0035","0.0297"
"13.5000","22.5031","0.0298"
"13.8000","23.0032","0.0300"
"14.1000","23.5035","0.0300"
"14.4000","24.0035","0.0301"
"14.7000","24.5033","0.0302"
"15.0000","25.0035","0.0303"
"15.3000","25.5037","0.0305"
"15.6000","26.0036","0.0306"
"15.9000","26.5033","0.0307"
"16.2000","27.0033","0.0309"
"16.5000","27.5036","0.0311"
"16.8000","28.0031","0.0312"
"17.1000","28.5032","0.0314"
"17.4000","29.0033","0.0315"
"17.7000","29.5036","0.0317"
"18.0000","30.0035","0.0319"
"18.3000","30.5032","0.0320"
"18.6000","31.0032","0.0321"
"18.9000","31.5035","0.0323"
"19.2000","32.0035","0.0324"
"19.5000","32.5033","0.0325"
"19.8000","33.0033","0.0327"
"20.1000","33.5037","0.0328"
"20.4000","34.0036","0.0329"
"20.7000","34.5033","0.0330"
"21.0000","35.0032","0.0332"
"21.3000","35.5035","0.0332"
"21.6000","36.0033","0.0333"
"21.9000","36.5033","0.0334"
"22.2000","37.0033","0.0335"
"22.5000","37.5035","0.0336"
"22.8000","38.0036","0.0337"
"23.1000","38.5032","0.0339"
"23.4000","39.0031","0.0339"
"23.7000","39.5035","0.0340"
"24.0000","40.0035","0.0341"
"24.3000","40.5033","0.0343"
"24.6000","41.0035","0.0343"
"24.9000","41.5037","0.0344"
"25.2000","42.0036","0.0345"
"25.5000","42.5035","0.0346"
"25.8000","43.0033","0.0346"
"26.1000","43.5036","0.0347"
"26.4000","44.0035","0.0347"
"26.7000","44.5032","0.0348"
"27.0000","45.0035","0.0348"
"27.3000","45.5036","0.0349"
"27.6000","46.0035","0.0350"
"27.9000","46.5032","0.0350"
"28.2000","47.0032","0.0350"
"28.5000","47.5035","0.0350"
"28.8000","48.0033","0.0350"
"29.1000","48.5032","0.0349"
"29.4000","49.0035","0.0346"
"29.7000","49.5036","0.0346"
"30.0000","50.0036","0.0346"
"30.3000","50.5033","0.0347"
"30.6000","51.0031","0.0347"
"30.9000","51.5035","0.0346"
"31.2000","52.0035","0.0345"
"31.5000","52.5032","0.0345"
"31.8000","53.0033","0.0344"
"32.1000","53.5036","0.0346"
"32.4000","54.0035","0.0347"
"32.7000","54.5032","0.0349"
"33.0000","55.0033","0.0350"
"33.3000","55.5035","0.0352"
"33.6000","56.0035","0.0353"
"33.9000","56.5032","0.0354"
"34.2000","57.0035","0.0356"
"34.5000","57.5037","0.0357"
"34.8000","58.0036","0.0358"
"35.1000","58.5033","0.0359"
"35.4000","59.0032","0.0360"
"35.7000","59.5035","0.0362"
"36.0000","60.0035","0.0362"
"36.3000","60.5032","0.0363"
"36.6000","61.0035","0.0364"
"36.9000","61.5035","0.0365"
"37.2000","62.0035","0.0366"
"37.5000","62.5032","0.0367"
"37.8000","63.0032","0.0368"
"38.1000","63.5035","0.0368"
"38.4000","64.0035","0.0369"
"38.7000","64.5033","0.0370"
"39.0000","65.0033","0.0370"
"39.3000","65.5036","0.0371"
"39.6000","66.0036","0.0372"
"39.9000","66.5033","0.0372"
"40.2000","67.0033","0.0373"
"40.5000","67.5036","0.0374"
"40.8000","68.0035","0.0375"
"41.1000","68.5032","0.0377"
"41.4000","69.0033","0.0377"
"41.7000","69.5036","0.0378"
"42.0000","70.0035","0.0379"
"42.3000","70.5033","0.0380"
"42.6000","71.0032","0.0380"
"42.9000","71.5035","0.0381"
"43.2000","72.0035","0.0381"
"43.5000","72.5032","0.0382"
"43.8000","73.0035","0.0383"
"44.1000","73.5036","0.0384"
"44.4000","74.0036","0.0384"
"44.7000","74.5033","0.0385"
"45.0000","75.0033","0.0385"
"45.3000","75.5035","0.0386"
"45.6000","76.0035","0.0387"
"45.9000","76.5032","0.0387"
"46.2000","77.0033","0.0387"
"46.5000","77.5034","0.0387"
"46.8000","78.0034","0.0388"
"47.1000","78.5031","0.0388"
"47.4000","79.0032","0.0388"
"47.7000","79.5035","0.0387"
"48.0000","80.0035","0.0386"
"48.3000","80.5033","0.0386"
"48.6000","81.0034","0.0384"
"48.9000","81.5036","0.0383"
"49.2000","82.0037","0.0380"
"49.5000","82.5033","0.0379"
"49.8000","83.0033","0.0380"
"50.1000","83.5035","0.0382"
"50.4000","84.0035","0.0384"
"50.7000","84.5032","0.0385"
"51.0000","85.0033","0.0387"
"51.3000","85.5036","0.0388"
"51.6000","86.0035","0.0389"
"51.9000","86.5032","0.0391"
"52.2000","87.0032","0.0392"
"52.5000","87.5033","0.0393"
"52.8000","88.0033","0.0394"
"53.1000","88.5033","0.0395"
"53.4000","89.0034","0.0396"
"53.7000","89.5037","0.0397"
"54.0000","90.0036","0.0398"
"54.3000","90.5033","0.0399"
"54.6000","91.0032","0.0400"
"54.9000","91.5035","0.0400"
"55.2000","92.0034","0.0401"
"55.5000","92.5032","0.0402"
"55.8000","93.0033","0.0403"
"56.1000","93.5035","0.0404"
"56.4000","94.0035","0.0405"
"56.7000","94.5031","0.0406"
"57.0000","95.0032","0.0407"
"57.3000","95.5035","0.0408"
"57.6000","96.0034","0.0409"
"57.9000","96.5033","0.0410"
"58.2000","97.0035","0.0410"
"58.5000","97.5037","0.0411"
"58.8000","98.0036","0.0412"
"59.1000","98.5032","0.0412"
"59.4000","99.0033","0.0413"
"59.7000","99.5033","0.0414"
"60.0000","100.0034","0.0414"
"60.3000","100.5033","0.0415"
"60.6000","101.0033","0.0416"
"60.9000","101.5035","0.0416"
"61.2000","102.0035","0.0416"
"61.5000","102.5032","0.0416"
"61.8000","103.0032","0.0415"
"62.1000","103.5033","0.0412"
"62.4000","104.0034","0.0411"
"62.7000","104.5033","0.0411"
"63.0000","105.0033","0.0411"
"63.3000","105.5037","0.0411"
"63.6000","106.0035","0.0412"
"63.9000","106.5033","0.0413"
"64.2000","107.0032","0.0414"
"64.5000","107.5034","0.0415"
"64.8000","108.0035","0.0417"
"65.1000","108.5032","0.0418"
"65.4000","109.0033","0.0419"
"65.7000","109.5035","0.0420"
"66.0000","110.0035","0.0421"
"66.3000","110.5032","0.0422"
"66.6000","111.0032","0.0423"
"66.9000","111.5034","0.0424"
"67.2000","112.0035","0.0426"
"67.5000","112.5033","0.0427"
"67.8000","113.0035","0.0428"
"68.1000","113.5036","0.0429"
"68.4000","114.0036","0.0430"
"68.7000","114.5032","0.0431"
"69.0000","115.0032","0.0432"
"69.3000","115.5035","0.0433"
"69.6000","116.0035","0.0434"
"69.9000","116.5032","0.0435"
"70.2000","117.0033","0.0436"
"70.5000","117.5034","0.0438"
"70.8000","118.0034","0.0439"
"71.1000","118.5032","0.0440"
"71.4000","119.0032","0.0442"
"71.7000","119.5035","0.0443"
"72.0000","120.0035","0.0444"
"72.3000","120.5033","0.0446"
"72.6000","121.0033","0.0446"
"72.9000","121.5037","0.0447"
"73.2000","122.0034","0.0449"
"73.5000","122.5033","0.0450"
"73.8000","123.0033","0.0450"
"74.1000","123.5033","0.0452"
"74.4000","124.0035","0.0453"
"74.7000","124.5032","0.0455"
"75.0000","125.0033","0.0456"
"75.3000","125.5036","0.0458"
"75.6000","126.0034","0.0459"
"75.9000","126.5032","0.0461"
"76.2000","127.0032","0.0462"
"76.5000","127.5036","0.0463"
"76.8000","128.0033","0.0465"
"77.1000","128.5034","0.0466"
"77.4000","129.0034","0.0467"
"77.7000","129.5037","0.0468"
"78.0000","130.0034","0.0469"
"78.3000","130.5033","0.0470"
"78.6000","131.0033","0.0471"
"78.9000","131.5034","0.0472"
"79.2000","132.0034","0.0473"
"79.5000","132.5032","0.0473"
"79.8000","133.0033","0.0474"
"80.1000","133.5036","0.0474"
"80.4000","134.0034","0.0475"
"80.7000","134.5032","0.0475"
"81.0000","135.0032","0.0474"
"81.3000","135.5034","0.0472"
"81.6000","136.0034","0.0470"
"81.9000","136.5033","0.0467"
"82.2000","137.0033","0.0465"
"82.5000","137.5036","0.0463"
"82.8000","138.0034","0.0461"
"83.1000","138.5032","0.0460"
"83.4000","139.0032","0.0460"
"83.7000","139.5034","0.0460"
"84.0000","140.0034","0.0461"
"84.3000","140.5032","0.0461"
"84.6000","141.0033","0.0461"
"84.9000","141.5036","0.0462"
"85.2000","142.0033","0.0463"
"85.5000","142.5032","0.0463"
"85.8000","143.0032","0.0464"
"86.1000","143.5034","0.0465"
"86.4000","144.0034","0.0467"
"86.7000","144.5033","0.0469"
"87.0000","145.0034","0.0471"
"87.3000","145.5036","0.0473"
"87.6000","146.0037","0.0475"
"87.9000","146.5033","0.0476"
"88.2000","147.0033","0.0478"
"88.5000","147.5034","0.0480"
"88.8000","148.0034","0.0482"
"89.1000","148.5033","0.0484"
"89.4000","149.0033","0.0485"
"89.7000","149.5034","0.0486"
"90.0000","150.0033","0.0488"
"90.3000","150.5032","0.0490"
"90.6000","151.0032","0.0492"
"90.9000","151.5033","0.0494"
"91.2000","152.0036","0.0495"
"91.5000","152.5032","0.0496"
"91.8000","153.0034","0.0497"
"92.1000","153.5036","0.0499"
"92.4000","154.0034","0.0500"
"92.7000","154.5032","0.0501"
"93.0000","155.0033","0.0502"
"93.3000","155.5034","0.0503"
"93.6000","156.0034","0.0504"
"93.9000","156.5032","0.0505"
"94.2000","157.0033","0.0505"
"94.5000","157.5036","0.0506"
"94.8000","158.0034","0.0505"
"95.1000","158.5032","0.0505"
"95.4000","159.0032","0.0505"
"95.7000","159.5034","0.0504"
"96.0000","160.0034","0.0502"
"96.3000","160.5033","0.0498"
"96.6000","161.0034","0.0494"
"96.9000","161.5037","0.0487"
"97.2000","162.0036","0.0482"
"97.5000","162.5033","0.0478"
"97.8000","163.0032","0.0477"
"98.1000","163.5034","0.0474"
"98.4000","164.0034","0.0473"
"98.7000","164.5033","0.0471"
"99.0000","165.0034","0.0471"
"99.3000","165.5034","0.0472"
"99.6000","166.0034","0.0472"
"99.9000","166.5032","0.0472"
"100.2000","167.0033","0.0473"
"100.5000","167.5033","0.0474"
"100.8000","168.0034","0.0475"
"101.1000","168.5033","0.0475"
"101.4000","169.0034","0.0476"
"101.7000","169.5036","0.0478"
"102.0000","170.0036","0.0479"
"102.3000","170.5033","0.0481"
"102.6000","171.0033","0.0483"
"102.9000","171.5034","0.0485"
"103.2000","172.0034","0.0486"
"103.5000","172.5033","0.0488"
"103.8000","173.0034","0.0490"
"104.1000","173.5034","0.0492"
"104.4000","174.0034","0.0495"
"104.7000","174.5032","0.0497"
"105.0000","175.0033","0.0500"
"105.3000","175.5034","0.0502"
"105.6000","176.0034","0.0505"
"105.9000","176.5034","0.0508"
"106.2000","177.0034","0.0510"
"106.5000","177.5036","0.0511"
"106.8000","178.0034","0.0513"
"107.1000","178.5032","0.0514"
"107.4000","179.0033","0.0516"
"107.7000","179.5034","0.0517"
"108.0000","180.0034","0.0518"
"108.3000","180.5032","0.0518"
"108.6000","181.0033","0.0518"
"108.9000","181.5036","0.0517"
"109.2000","182.0034","0.0515"
"109.5000","182.5032","0.0496"
"109.8000","183.0032","0.0477"
"110.1000","183.5034","0.0471"
"110.4000","184.0034","0.0470"
"110.7000","184.5032","0.0471"
"111.0000","185.0034","0.0473"
"111.3000","185.5037","0.0475"
"111.6000","186.0036","0.0478"
"111.9000","186.5032","0.0480"
"112.2000","187.0033","0.0483"
"112.5000","187.5033","0.0485"
"112.8000","188.0036","0.0488"
"113.1000","188.5032","0.0490"
"113.4000","189.0033","0.0491"
"113.7000","189.5036","0.0494"
"114.0000","190.0036","0.0495"
"114.3000","190.5032","0.0497"
"114.6000","191.0032","0.0499"
"114.9000","191.5036","0.0500"
"115.2000","192.0034","0.0502"
"115.5000","192.5033","0.0503"
"115.8000","193.0034","0.0504"
"116.1000","193.5036","0.0505"
"116.4000","194.0036","0.0505"
"116.7000","194.5033","0.0504"
"117.0000","195.0032","0.0502"
"117.3000","195.5034","0.0501"
"117.6000","196.0034","0.0499"
"117.9000","196.5033","0.0498"
"118.2000","197.0032","0.0498"
"118.5000","197.5034","0.0499"
"118.8000","198.0033","0.0500"
"119.1000","198.5033","0.0502"
"119.4000","199.0032","0.0503"
"119.7000","199.5034","0.0506"
"120.0000","200.0034","0.0508"
"120.3000","200.5033","0.0510"
"120.6000","201.0033","0.0512"
"120.9000","201.5036","0.0514"
"121.2000","202.0034","0.0517"
"121.5000","202.5033","0.0519"
"121.8000","203.0033","0.0521"
"122.1000","203.5034","0.0524"
"122.4000","204.0034","0.0525"
"122.7000","204.5032","0.0527"
"123.0000","205.0034","0.0530"
"123.3000","205.5034","0.0532"
"123.6000","206.0034","0.0534"
"123.9000","206.5030","0.0535"
"124.2000","207.0032","0.0537"
"124.5000","207.5034","0.0539"
"124.8000","208.0034","0.0541"
"125.1000","208.5033","0.0542"
"125.4000","209.0034","0.0544"
"125.7000","209.5037","0.0546"
"126.0000","210.0036","0.0548"
"126.3000","210.5033","0.0549"
"126.6000","211.0032","0.0551"
"126.9000","211.5034","0.0553"
"127.2000","212.0034","0.0554"
"127.5000","212.5032","0.0555"
"127.8000","213.0032","0.0557"
"128.1000","213.5034","0.0558"
"128.4000","214.0034","0.0559"
"128.7000","214.5030","0.0561"
"129.0000","215.0032","0.0562"
"129.3000","215.5033","0.0564"
"129.6000","216.0034","0.0565"
"129.9000","216.5032","0.0567"
"130.2000","217.0033","0.0569"
"130.5000","217.5036","0.0570"
"130.8000","218.0036","0.0571"
"131.1000","218.5033","0.0572"
"131.4000","219.0032","0.0573"
"131.7000","219.5036","0.0574"
"132.0000","220.0034","0.0575"
"132.3000","220.5033","0.0575"
"132.6000","221.0033","0.0575"
"132.9000","221.5034","0.0571"
"133.2000","222.0036","0.0568"
"133.5000","222.5032","0.0566"
"133.8000","223.0032","0.0564"
"134.1000","223.5033","0.0562"
"134.4000","224.0034","0.0561"
"134.7000","224.5033","0.0559"
"135.0000","225.0034","0.0558"
"135.3000","225.5036","0.0557"
"135.6000","226.0036","0.0558"
"135.9000","226.5032","0.0558"
"136.2000","227.0033","0.0559"
"136.5000","227.5034","0.0560"
"136.8000","228.0034","0.0562"
"137.1000","228.5032","0.0563"
"137.4000","229.0033","0.0564"
"137.7000","229.5034","0.0565"
"138.0000","230.0033","0.0567"
"138.3000","230.5032","0.0568"
"138.6000","231.0032","0.0570"
"138.9000","231.5034","0.0572"
"139.2000","232.0033","0.0573"
"139.5000","232.5033","0.0575"
"139.8000","233.0033","0.0577"
"140.1000","233.5037","0.0579"
"140.4000","234.0036","0.0580"
"140.7000","234.5032","0.0582"
"141.0000","235.0033","0.0584"
"141.3000","235.5036","0.0586"
"141.6000","236.0034","0.0588"
"141.9000","236.5032","0.0590"
"142.2000","237.0033","0.0591"
"142.5000","237.5034","0.0594"
"142.8000","238.0034","0.0595"
"143.1000","238.5032","0.0597"
"143.4000","239.0032","0.0599"
"143.7000","239.5034","0.0600"
"144.0000","240.0034","0.0602"
"144.3000","240.5033","0.0604"
"144.6000","241.0034","0.0605"
"144.9000","241.5036","0.0607"
"145.2000","242.0036","0.0609"
"145.5000","242.5032","0.0610"
"145.8000","243.0033","0.0612"
"146.1000","243.5033","0.0613"
"146.4000","244.0034","0.0615"
"146.7000","244.5032","0.0616"
"147.0000","245.0033","0.0618"
"147.3000","245.5036","0.0620"
"147.6000","246.0034","0.0621"
"147.9000","246.5032","0.0623"
"148.2000","247.0032","0.0624"
"148.5000","247.5034","0.0626"
"148.8000","248.0033","0.0628"
"149.1000","248.5033","0.0629"
"149.4000","249.0034","0.0630"
"149.7000","249.5036","0.0632"
"150.0000","250.0035","0.0634"
"150.3000","250.5033","0.0633"
"150.6000","251.0033","0.0636"
"150.9000","251.5034","0.0637"
"151.2000","252.0036","0.0638"
"151.5000","252.5032","0.0640"
"151.8000","253.0033","0.0641"
"152.1000","253.5034","0.0642"
"152.4000","254.0036","0.0643"
"152.7000","254.5033","0.0642"
"153.0000","255.0032","0.0642"
"153.3000","255.5034","0.0641"
"153.6000","256.0034","0.0639"
"153.9000","256.5033","0.0638"
"154.2000","257.0034","0.0638"
"154.5000","257.5035","0.0638"
"154.8000","258.0036","0.0639"
"155.1000","258.5031","0.0641"
"155.4000","259.0033","0.0643"
"155.7000","259.5034","0.0647"
"156.0000","260.0034","0.0650"
"156.3000","260.5031","0.0653"
"156.6000","261.0033","0.0655"
"156.9000","261.5034","0.0658"
"157.2000","262.0033","0.0661"
"157.5000","262.5030","0.0664"
"157.8000","263.0030","0.0666"
"158.1000","263.5034","0.0669"
"158.4000","264.0035","0.0671"
"158.7000","264.5033","0.0672"
"159.0000","265.0034","0.0674"
"159.3000","265.5037","0.0676"
"159.6000","266.0035","0.0678"
"159.9000","266.5031","0.0679"
"160.2000","267.0033","0.0680"
"160.5000","267.5034","0.0681"
"160.8000","268.0034","0.0682"
"161.1000","268.5032","0.0683"
"161.4000","269.0033","0.0683"
"161.7000","269.5034","0.0683"
"162.0000","270.0034","0.0680"
"162.3000","270.5032","0.0673"
"162.6000","271.0031","0.0664"
"162.9000","271.5034","0.0653"
"163.2000","272.0033","0.0646"
"163.5000","272.5033","0.0642"
"163.8000","273.0035","0.0639"
"164.1000","273.5037","0.0637"
"164.4000","274.0034","0.0634"
"164.7000","274.5033","0.0629"
"165.0000","275.0033","0.0624"
"165.3000","275.5034","0.0622"
"165.6000","276.0034","0.0623"
"165.9000","276.5031","0.0625"
"166.2000","277.0033","0.0628"
"166.5000","277.5035","0.0632"
"166.8000","278.0034","0.0637"
"167.1000","278.5031","0.0641"
"167.4000","279.0031","0.0646"
"167.7000","279.5033","0.0651"
"168.0000","280.0034","0.0655"
"168.3000","280.5033","0.0660"
"168.6000","281.0034","0.0664"
"168.9000","281.5037","0.0668"
"169.2000","282.0035","0.0671"
"169.5000","282.5033","0.0675"
"169.8000","283.0033","0.0678"
"170.1000","283.5034","0.0680"
"170.4000","284.0034","0.0682"
"170.7000","284.5033","0.0683"
"171.0000","285.0034","0.0681"
"171.3000","285.5034","0.0681"
"171.6000","286.0033","0.0681"
"171.9000","286.5031","0.0684"
"172.2000","287.0032","0.0686"
"172.5000","287.5035","0.0688"
"172.8000","288.0033","0.0690"
"173.1000","288.5033","0.0691"
"173.4000","289.0033","0.0692"
"173.7000","289.5037","0.0693"
"174.0000","290.0035","0.0694"
"174.3000","290.5031","0.0694"
"174.6000","291.0033","0.0695"
"174.9000","291.5034","0.0695"
"175.2000","292.0034","0.0692"
"175.5000","292.5033","0.0684"
"175.8000","293.0033","0.0677"
"176.1000","293.5034","0.0672"
"176.4000","294.0035","0.0666"
"176.7000","294.5033","0.0660"
"177.0000","295.0031","0.0655"
"177.3000","295.5033","0.0653"
"177.6000","296.0034","0.0652"
"177.9000","296.5033","0.0651"
"178.2000","297.0034","0.0652"
"178.5000","297.5036","0.0651"
"178.8000","298.0034","0.0652"
"179.1000","298.5033","0.0653"
"179.4000","299.0034","0.0654"
"179.7000","299.5035","0.0655"
"180.0000","300.0034","0.0656"
"180.3000","300.5031","0.0657"
"180.6000","301.0034","0.0659"
"180.9000","301.5035","0.0660"
"181.2000","302.0033","0.0662"
"181.5000","302.5031","0.0663"
"181.8000","303.0033","0.0665"
"182.1000","303.5034","0.0666"
"182.4000","304.0034","0.0668"
"182.7000","304.5033","0.0669"
"183.0000","305.0033","0.0671"
"183.3000","305.5037","0.0673"
"183.6000","306.0035","0.0675"
"183.9000","306.5033","0.0676"
"184.2000","307.0031","0.0678"
"184.5000","307.5035","0.0679"
"184.8000","308.0034","0.0681"
"185.1000","308.5033","0.0683"
"185.4000","309.0033","0.0684"
"185.7000","309.5034","0.0685"
"186.0000","310.0034","0.0687"
"186.3000","310.5031","0.0688"
"186.6000","311.0033","0.0688"
"186.9000","311.5033","0.0688"
"187.2000","312.0034","0.0688"
"187.5000","312.5033","0.0688"
"187.8000","313.0034","0.0688"
"188.1000","313.5035","0.0688"
"188.4000","314.0034","0.0687"
"188.7000","314.5033","0.0687"
"189.0000","315.0033","0.0687"
"189.3000","315.5035","0.0687"
"189.6000","316.0034","0.0688"
"189.9000","316.5030","0.0689"
"190.2000","317.0033","0.0690"
"190.5000","317.5035","0.0690"
"190.8000","318.0034","0.0692"
"191.1000","318.5031","0.0693"
"191.4000","319.0030","0.0694"
"191.7000","319.5034","0.0695"
"192.0000","320.0034","0.0696"
"192.3000","320.5031","0.0697"
"192.6000","321.0033","0.0697"
"192.9000","321.5035","0.0698"
"193.2000","322.0035","0.0698"
"193.5000","322.5033","0.0700"
"193.8000","323.0033","0.0700"
"194.1000","323.5034","0.0700"
"194.4000","324.0034","0.0699"
"194.7000","324.5031","0.0699"
"195.0000","325.0034","0.0699"
"195.3000","325.5034","0.0699"
"195.6000","326.0034","0.0698"
"195.9000","326.5033","0.0699"
"196.2000","327.0031","0.0698"
"196.5000","327.5036","0.0699"
"196.8000","328.0033","0.0699"
"197.1000","328.5033","0.0700"
"197.4000","329.0034","0.0700"
"197.7000","329.5037","0.0701"
"198.0000","330.0034","0.0703"
"198.3000","330.5031","0.0705"
"198.6000","331.0034","0.0708"
"198.9000","331.5034","0.0712"
"199.2000","332.0034","0.0715"
"199.5000","332.5030","0.0718"
"199.8000","333.0033","0.0722"
"200.1000","333.5034","0.0725"
"200.4000","334.0035","0.0729"
"200.7000","334.5031","0.0732"
"201.0000","335.0031","0.0737"
"201.3000","335.5033","0.0741"
"201.6000","336.0033","0.0745"
"201.9000","336.5033","0.0749"
"202.2000","337.0034","0.0753"
"202.5000","337.5035","0.0757"
"202.8000","338.0037","0.0760"
"203.1000","338.5033","0.0764"
"203.4000","339.0031","0.0767"
"203.7000","339.5034","0.0770"
"204.0000","340.0034","0.0772"
"204.3000","340.5031","0.0775"
"204.6000","341.0034","0.0777"
"204.9000","341.5036","0.0780"
"205.2000","342.0033","0.0781"
"205.5000","342.5032","0.0782"
"205.8000","343.0031","0.0781"
"206.1000","343.5034","0.0779"
"206.4000","344.0034","0.0775"
"206.7000","344.5033","0.0776"
"207.0000","345.0034","0.0778"
"207.3000","345.5037","0.0780"
"207.6000","346.0034","0.0784"
"207.9000","346.5031","0.0787"
"208.2000","347.0033","0.0789"
"208.5000","347.5034","0.0792"
"208.8000","348.0034","0.0794"
"209.1000","348.5031","0.0797"
"209.4000","349.0033","0.0800"
"209.7000","349.5034","0.0803"
"210.0000","350.0034","0.0807"
"210.3000","350.5031","0.0810"
"210.6000","351.0031","0.0813"
"210.9000","351.5033","0.0816"
"211.2000","352.0034","0.0819"
"211.5000","352.5033","0.0822"
"211.8000","353.0034","0.0825"
"212.1000","353.5035","0.0828"
"212.4000","354.0034","0.0831"
"212.7000","354.5033","0.0835"
"213.0000","355.0034","0.0838"
"213.3000","355.5034","0.0840"
"213.6000","356.0033","0.0843"
"213.9000","356.5032","0.0845"
"214.2000","357.0033","0.0848"
"214.5000","357.5035","0.0850"
"214.8000","358.0034","0.0853"
"215.1000","358.5033","0.0855"
"215.4000","359.0031","0.0857"
"215.7000","359.5035","0.0860"
"216.0000","360.0034","0.0862"
"216.3000","360.5033","0.0864"
"216.6000","361.0033","0.0866"
"216.9000","361.5035","0.0868"
"217.2000","362.0034","0.0870"
"217.5000","362.5033","0.0872"
"217.8000","363.0033","0.0873"
"218.1000","363.5034","0.0875"
"218.4000","364.0034","0.0877"
"218.7000","364.5031","0.0878"
"219.0000","365.0033","0.0880"
"219.3000","365.5034","0.0881"
"219.6000","366.0034","0.0882"
"219.9000","366.5033","0.0884"
"220.2000","367.0031","0.0885"
"220.5000","367.5034","0.0887"
"220.8000","368.0034","0.0888"
"221.1000","368.5031","0.0889"
"221.4000","369.0033","0.0890"
"221.7000","369.5036","0.0892"
"222.0000","370.0035","0.0894"
"222.3000","370.5033","0.0895"
"222.6000","371.0033","0.0897"
"222.9000","371.5035","0.0898"
"223.2000","372.0034","0.0900"
"223.5000","372.5031","0.0901"
"223.8000","373.0033","0.0903"
"224.1000","373.5035","0.0903"
"224.4000","374.0034","0.0905"
"224.7000","374.5031","0.0906"
"225.0000","375.0032","0.0907"
"225.3000","375.5034","0.0908"
"225.6000","376.0035","0.0908"
"225.9000","376.5033","0.0909"
"226.2000","377.0033","0.0910"
"226.5000","377.5035","0.0910"
"226.8000","378.0034","0.0910"
"227.1000","378.5033","0.0911"
"227.4000","379.0033","0.0912"
"227.7000","379.5034","0.0912"
"228.0000","380.0034","0.0912"
"228.3000","380.5033","0.0913"
"228.6000","381.0033","0.0913"
"228.9000","381.5034","0.0913"
"229.2000","382.0033","0.0913"
"229.5000","382.5031","0.0912"
"229.8000","383.0031","0.0912"
"230.1000","383.5036","0.0912"
"230.4000","384.0033","0.0912"
"230.7000","384.5031","0.0912"
"231.0000","385.0034","0.0911"
"231.3000","385.5037","0.0911"
"231.6000","386.0035","0.0912"
"231.9000","386.5030","0.0912"
"232.2000","387.0034","0.0912"
"232.5000","387.5035","0.0913"
"232.8000","388.0034","0.0913"
"233.1000","388.5031","0.0913"
"233.4000","389.0033","0.0913"
"233.7000","389.5034","0.0913"
"234.0000","390.0034","0.0912"
"234.3000","390.5031","0.0909"
"234.6000","391.0031","0.0903"
"234.9000","391.5034","0.0900"
"235.2000","392.0034","0.0899"
"235.5000","392.5034","0.0899"
"235.8000","393.0034","0.0900"
"236.1000","393.5035","0.0900"
"236.4000","394.0034","0.0900"
"236.7000","394.5031","0.0902"
"237.0000","395.0031","0.0903"
"237.3000","395.5034","0.0905"
"237.6000","396.0033","0.0907"
"237.9000","396.5030","0.0910"
"238.2000","397.0033","0.0913"
"238.5000","397.5035","0.0917"
"238.8000","398.0034","0.0921"
"239.1000","398.5030","0.0925"
"239.4000","399.0031","0.0930"
"239.7000","399.5034","0.0935"
"240.0000","400.0034","0.0940"
"240.3000","400.5033","0.0945"
"240.6000","401.0034","0.0949"
"240.9000","401.5035","0.0952"
"241.2000","402.0037","0.0954"
"241.5000","402.5033","0.0956"
"241.8000","403.0031","0.0959"
"242.1000","403.5035","0.0963"
"242.4000","404.0036","0.0967"
"242.7000","404.5031","0.0970"
"243.0000","405.0033","0.0973"
"243.3000","405.5034","0.0977"
"243.6000","406.0034","0.0980"
"243.9000","406.5030","0.0982"
"244.2000","407.0033","0.0984"
"244.5000","407.5034","0.0987"
"244.8000","408.0034","0.0990"
"245.1000","408.5033","0.0993"
"245.4000","409.0034","0.0996"
"245.7000","409.5035","0.0998"
"246.0000","410.0034","0.1000"
"246.3000","410.5033","0.1003"
"246.6000","411.0033","0.1005"
"246.9000","411.5034","0.1007"
"247.2000","412.0034","0.1008"
"247.5000","412.5031","0.1009"
"247.8000","413.0034","0.1009"
"248.1000","413.5036","0.1008"
"248.4000","414.0034","0.1002"
"248.7000","414.5030","0.0992"
"249.0000","415.0031","0.0978"
"249.3000","415.5035","0.0958"
"249.6000","416.0035","0.0936"
"249.9000","416.5033","0.0916"
"250.2000","417.0034","0.0902"
"250.5000","417.5037","0.0894"
"250.8000","418.0036","0.0892"
"251.1000","418.5033","0.0891"
"251.4000","419.0032","0.0893"
"251.7000","419.5034","0.0895"
"252.0000","420.0034","0.0899"
"252.3000","420.5031","0.0903"
"252.6000","421.0034","0.0908"
"252.9000","421.5035","0.0913"
"253.2000","422.0033","0.0918"
"253.5000","422.5033","0.0923"
"253.8000","423.0033","0.0928"
"254.1000","423.5033","0.0932"
"254.4000","424.0034","0.0937"
"254.7000","424.5033","0.0941"
"255.0000","425.0034","0.0945"
"255.3000","425.5035","0.0950"
"255.6000","426.0035","0.0956"
"255.9000","426.5031","0.0962"
"256.2000","427.0033","0.0967"
"256.5000","427.5036","0.0973"
"256.8000","428.0034","0.0978"
"257.1000","428.5031","0.0984"
"257.4000","429.0034","0.0989"
"257.7000","429.5035","0.0994"
"258.0000","430.0034","0.0999"
"258.3000","430.5032","0.1004"
"258.6000","431.0031","0.1009"
"258.9000","431.5034","0.1014"
"259.2000","432.0034","0.1018"
"259.5000","432.5033","0.1022"
"259.8000","433.0034","0.1025"
"260.1000","433.5035","0.1029"
"260.4000","434.0035","0.1033"
"260.7000","434.5033","0.1037"
"261.0000","435.0033","0.1040"
"261.3000","435.5034","0.1043"
"261.6000","436.0034","0.1045"
"261.9000","436.5033","0.1047"
"262.2000","437.0034","0.1048"
"262.5000","437.5035","0.1048"
"262.8000","438.0033","0.1048"
"263.1000","438.5031","0.1048"
"263.4000","439.0031","0.1049"
"263.7000","439.5034","0.1050"
"264.0000","440.0034","0.1051"
"264.3000","440.5031","0.1053"
"264.6000","441.0034","0.1055"
"264.9000","441.5037","0.1057"
"265.2000","442.0035","0.1059"
"265.5000","442.5033","0.1061"
"265.8000","443.0033","0.1064"
"266.1000","443.5034","0.1066"
"266.4000","444.0034","0.1062"
"266.7000","444.5030","0.1062"
"267.0000","445.0033","0.1063"
"267.3000","445.5035","0.1065"
"267.6000","446.0036","0.1066"
"267.9000","446.5031","0.1067"
"268.2000","447.0031","0.1069"
"268.5000","447.5035","0.1071"
"268.8000","448.0034","0.1074"
"269.1000","448.5034","0.1076"
"269.4000","449.0034","0.1078"
"269.7000","449.5035","0.1080"
"270.0000","450.0035","0.1082"
"270.3000","450.5033","0.1084"
"270.6000","451.0033","0.1086"
"270.9000","451.5035","0.1088"
"271.2000","452.0033","0.1090"
"271.5000","452.5031","0.1092"
"271.8000","453.0033","0.1093"
"272.1000","453.5037","0.1095"
"272.4000","454.0033","0.1096"
"272.7000","454.5031","0.1098"
"273.0000","455.0033","0.1099"
"273.3000","455.5034","0.1101"
"273.6000","456.0034","0.1102"
"273.9000","456.5031","0.1102"
"274.2000","457.0034","0.1102"
"274.5000","457.5037","0.1102"
"274.8000","458.0035","0.1103"
"275.1000","458.5033","0.1103"
"275.4000","459.0031","0.1105"
"275.7000","459.5034","0.1107"
"276.0000","460.0034","0.1111"
"276.3000","460.5030","0.1114"
"276.6000","461.0033","0.1117"
"276.9000","461.5035","0.1121"
"277.2000","462.0034","0.1125"
"277.5000","462.5031","0.1130"
"277.8000","463.0032","0.1133"
"278.1000","463.5034","0.1136"
"278.4000","464.0034","0.1139"
"278.7000","464.5033","0.1144"
"279.0000","465.0034","0.1148"
"279.3000","465.5037","0.1151"
"279.6000","466.0034","0.1152"
"279.9000","466.5033","0.1154"
"280.2000","467.0034","0.1155"
"280.5000","467.5034","0.1155"
"280.8000","468.0034","0.1156"
"281.1000","468.5031","0.1154"
"281.4000","469.0033","0.1150"
"281.7000","469.5035","0.1145"
"282.0000","470.0034","0.1137"
"282.3000","470.5031","0.1131"
"282.6000","471.0030","0.1127"
"282.9000","471.5036","0.1125"
"283.2000","472.0034","0.1125"
"283.5000","472.5033","0.1127"
"283.8000","473.0033","0.1129"
"284.1000","473.5035","0.1133"
"284.4000","474.0035","0.1137"
"284.7000","474.5034","0.1142"
"285.0000","475.0033","0.1147"
"285.3000","475.5034","0.1152"
"285.6000","476.0034","0.1158"
"285.9000","476.5031","0.1164"
"286.2000","477.0033","0.1170"
"286.5000","477.5035","0.1177"
"286.8000","478.0034","0.1182"
"287.1000","478.5031","0.1188"
"287.4000","479.0031","0.1194"
"287.7000","479.5033","0.1201"
"288.0000","480.0033","0.1207"
"288.3000","480.5031","0.1213"
"288.6000","481.0033","0.1219"
"288.9000","481.5034","0.1226"
"289.2000","482.0035","0.1231"
"289.5000","482.5033","0.1237"
"289.8000","483.0033","0.1242"
"290.1000","483.5034","0.1247"
"290.4000","484.0034","0.1253"
"290.7000","484.5031","0.1257"
"291.0000","485.0031","0.1262"
"291.3000","485.5034","0.1266"
"291.6000","486.0034","0.1270"
"291.9000","486.5031","0.1274"
"292.2000","487.0031","0.1278"
"292.5000","487.5036","0.1282"
"292.8000","488.0034","0.1286"
"293.1000","488.5033","0.1290"
"293.4000","489.0033","0.1294"
"293.7000","489.5035","0.1298"
"294.0000","490.0036","0.1301"
"294.3000","490.5033","0.1304"
"294.6000","491.0033","0.1307"
"294.9000","491.5035","0.1310"
"295.2000","492.0034","0.1312"
"295.5000","492.5031","0.1314"
"295.8000","493.0033","0.1315"
"296.1000","493.5035","0.1317"
"296.4000","494.0034","0.1318"
"296.7000","494.5031","0.1319"
"297.0000","495.0031","0.1320"
"297.3000","495.5035","0.1321"
"297.6000","496.0034","0.1322"
"297.9000","496.5031","0.1323"
"298.2000","497.0034","0.1323"
"298.5000","497.5035","0.1324"
"298.8000","498.0037","0.1325"
"299.1000","498.5031","0.1327"
"299.4000","499.0033","0.1328"
"299.7000","499.5034","0.1330"
"300.0000","500.0033","0.1331"
"300.3000","500.5031","0.1333"
"300.6000","501.0031","0.1334"
"300.9000","501.5035","0.1335"
"301.2000","502.0035","0.1336"
"301.5000","502.5031","0.1337"
"301.8000","503.0032","0.1339"
"302.1000","503.5034","0.1340"
"302.4000","504.0034","0.1341"
"302.7000","504.5031","0.1343"
"303.0000","505.0032","0.1344"
"303.3000","505.5037","0.1346"
"303.6000","506.0034","0.1347"
"303.9000","506.5034","0.1349"
"304.2000","507.0032","0.1350"
"304.5000","507.5035","0.1350"
"304.8000","508.0034","0.1352"
"305.1000","508.5031","0.1353"
"305.4000","509.0032","0.1356"
"305.7000","509.5035","0.1358"
"306.0000","510.0034","0.1360"
"306.3000","510.5031","0.1362"
"306.6000","511.0031","0.1365"
"306.9000","511.5033","0.1367"
"307.2000","512.0035","0.1369"
"307.5000","512.5032","0.1371"
"307.8000","513.0034","0.1373"
"308.1000","513.5035","0.1375"
"308.4000","514.0035","0.1376"
"308.7000","514.5031","0.1376"
"309.0000","515.0032","0.1376"
"309.3000","515.5035","0.1374"
"309.6000","516.0034","0.1373"
"309.9000","516.5031","0.1371"
"310.2000","517.0034","0.1369"
"310.5000","517.5034","0.1364"
"310.8000","518.0034","0.1356"
"311.1000","518.5031","0.1342"
"311.4000","519.0031","0.1322"
"311.7000","519.5035","0.1304"
"312.0000","520.0034","0.1286"
"312.3000","520.5031","0.1270"
"312.6000","521.0034","0.1258"
"312.9000","521.5036","0.1250"
"313.2000","522.0035","0.1245"
"313.5000","522.5031","0.1242"
"313.8000","523.0032","0.1239"
"314.1000","523.5035","0.1238"
"314.4000","524.0034","0.1235"
"314.7000","524.5031","0.1233"
"315.0000","525.0032","0.1228"
"315.3000","525.5034","0.1221"
"315.6000","526.0034","0.1212"
"315.9000","526.5031","0.1199"
"316.2000","527.0031","0.1185"
"316.5000","527.5035","0.1173"
"316.8000","528.0032","0.1165"
"317.1000","528.5032","0.1161"
"317.4000","529.0032","0.1160"
"317.7000","529.5035","0.1162"
"318.0000","530.0035","0.1164"
"318.3000","530.5032","0.1167"
"318.6000","531.0034","0.1171"
"318.9000","531.5034","0.1175"
"319.2000","532.0034","0.1178"
"319.5000","532.5031","0.1182"
"319.8000","533.0032","0.1184"
"320.1000","533.5035","0.1185"
"320.4000","534.0034","0.1186"
"320.7000","534.5031","0.1187"
"321.0000","535.0032","0.1186"
"321.3000","535.5034","0.1184"
"321.6000","536.0034","0.1180"
"321.9000","536.5032","0.1173"
"322.2000","537.0034","0.1165"
"322.5000","537.5037","0.1154"
"322.8000","538.0035","0.1135"
"323.1000","538.5032","0.1100"
"323.4000","539.0032","0.1043"
"323.7000","539.5035","0.0979"
"324.0000","540.0034","0.0952"
"324.3000","540.5031","0.0940"
"324.6000","541.0032","0.0934"
"324.9000","541.5035","0.0935"
"325.2000","542.0034","0.0942"
"325.5000","542.5032","0.0951"
"325.8000","543.0030","0.0962"
"326.1000","543.5035","0.0973"
"326.4000","544.0034","0.0985"
"326.7000","544.5031","0.0999"
"327.0000","545.0034","0.1012"
"327.3000","545.5036","0.1027"
"327.6000","546.0035","0.1041"
"327.9000","546.5031","0.1057"
"328.2000","547.0032","0.1071"
"328.5000","547.5035","0.1086"
"328.8000","548.0032","0.1102"
"329.1000","548.5031","0.1118"
"329.4000","549.0032","0.1134"
"329.7000","549.5034","0.1150"
"330.0000","550.0034","0.1166"
"330.3000","550.5031","0.1182"
"330.6000","551.0031","0.1198"
"330.9000","551.5032","0.1214"
"331.2000","552.0034","0.1230"
"331.5000","552.5031","0.1246"
"331.8000","553.0034","0.1262"
"332.1000","553.5037","0.1278"
"332.4000","554.0035","0.1294"
"332.7000","554.5032","0.1309"
"333.0000","555.0032","0.1325"
"333.3000","555.5034","0.1340"
"333.6000","556.0034","0.1355"
"333.9000","556.5031","0.1371"
"334.2000","557.0032","0.1385"
"334.5000","557.5035","0.1400"
"334.8000","558.0034","0.1414"
"335.1000","558.5031","0.1428"
"335.4000","559.0031","0.1442"
"335.7000","559.5034","0.1453"
"336.0000","560.0032","0.1466"
"336.3000","560.5032","0.1479"
"336.6000","561.0032","0.1492"
"336.9000","561.5037","0.1504"
"337.2000","562.0035","0.1515"
"337.5000","562.5032","0.1526"
"337.8000","563.0031","0.1537"
"338.1000","563.5034","0.1548"
"338.4000","564.0032","0.1557"
"338.7000","564.5031","0.1567"
"339.0000","565.0032","0.1576"
"339.3000","565.5035","0.1586"
"339.6000","566.0032","0.1594"
"339.9000","566.5031","0.1603"
"340.2000","567.0034","0.1611"
"340.5000","567.5035","0.1618"
"340.8000","568.0032","0.1625"
"341.1000","568.5031","0.1633"
"341.4000","569.0034","0.1640"
"341.7000","569.5036","0.1646"
"342.0000","570.0035","0.1653"
"342.3000","570.5032","0.1659"
"342.6000","571.0032","0.1665"
"342.9000","571.5035","0.1671"
"343.2000","572.0034","0.1676"
"343.5000","572.5030","0.1681"
"343.8000","573.0032","0.1686"
"344.1000","573.5035","0.1691"
"344.4000","574.0035","0.1696"
"344.7000","574.5031","0.1700"
"345.0000","575.0031","0.1705"
"345.3000","575.5034","0.1709"
"345.6000","576.0032","0.1713"
"345.9000","576.5032","0.1717"
"346.2000","577.0032","0.1721"
"346.5000","577.5036","0.1725"
"346.8000","578.0035","0.1729"
"347.1000","578.5032","0.1732"
"347.4000","579.0032","0.1735"
"347.7000","579.5035","0.1739"
"348.0000","580.0034","0.1742"
"348.3000","580.5031","0.1746"
"348.6000","581.0032","0.1749"
"348.9000","581.5035","0.1752"
"349.2000","582.0035","0.1755"
"349.5000","582.5032","0.1757"
"349.8000","583.0031","0.1760"
"350.1000","583.5034","0.1763"
"350.4000","584.0032","0.1765"
"350.7000","584.5031","0.1767"
"351.0000","585.0034","0.1770"
"351.3000","585.5037","0.1772"
"351.6000","586.0035","0.1775"
"351.9000","586.5032","0.1777"
"352.2000","587.0032","0.1779"
"352.5000","587.5035","0.1781"
"352.8000","588.0034","0.1784"
"353.1000","588.5029","0.1786"
"353.4000","589.0032","0.1788"
"353.7000","589.5034","0.1791"
"354.0000","590.0034","0.1794"
"354.3000","590.5031","0.1796"
"354.6000","591.0032","0.1799"
"354.9000","591.5034","0.1802"
"355.2000","592.0034","0.1805"
"355.5000","592.5031","0.1807"
"355.8000","593.0032","0.1810"
"356.1000","593.5037","0.1813"
"356.4000","594.0036","0.1816"
"356.7000","594.5031","0.1819"
"357.0000","595.0032","0.1822"
"357.3000","595.5035","0.1825"
"357.6000","596.0034","0.1828"
"357.9000","596.5031","0.1831"
"358.2000","597.0032","0.1834"
"358.5000","597.5035","0.1837"
"358.8000","598.0034","0.1841"
"359.1000","598.5031","0.1844"
"359.4000","599.0031","0.1847"
"359.7000","599.5034","0.1850"
"360.0000","600.0034","0.1854"
"360.3000","600.5032","0.1857"
"360.6000","601.0034","0.1861"
"360.9000","601.5036","0.1864"
"361.2000","602.0035","0.1867"
"361.5000","602.5034","0.1871"
"361.8000","603.0032","0.1874"
"362.1000","603.5034","0.1878"
"362.4000","604.0034","0.1880"
"362.7000","604.5031","0.1884"
"363.0000","605.0032","0.1887"
"363.3000","605.5035","0.1890"
"363.6000","606.0034","0.1893"
"363.9000","606.5031","0.1896"
"364.2000","607.0031","0.1899"
"364.5000","607.5034","0.1902"
"364.8000","608.0034","0.1904"
"365.1000","608.5030","0.1907"
"365.4000","609.0034","0.1909"
"365.7000","609.5035","0.1911"
"366.0000","610.0035","0.1913"
"366.3000","610.5032","0.1915"
"366.6000","611.0034","0.1917"
"366.9000","611.5035","0.1918"
"367.2000","612.0034","0.1918"
"367.5000","612.5031","0.1918"
"367.8000","613.0032","0.1910"
"368.1000","613.5035","0.1111"
"368.4000","614.0035","0.1009"
"368.7000","614.5032","0.0930"
"369.0000","615.0032","0.0903"
"369.3000","615.5034","0.0894"
"369.6000","616.0034","0.0894"
"369.9000","616.5032","0.0897"
"370.2000","617.0032","0.0903"
"370.5000","617.5035","0.0912"
"370.8000","618.0034","0.0921"
"371.1000","618.5032","0.0931"
"371.4000","619.0032","0.0943"
"371.7000","619.5035","0.0954"
"372.0000","620.0034","0.0966"
"372.3000","620.5031","0.0978"
"372.6000","621.0032","0.0990"
"372.9000","621.5034","0.1002"
"373.2000","622.0032","0.1014"
"373.5000","622.5031","0.1026"
"373.8000","623.0032","0.1039"
"374.1000","623.5034","0.1051"
"374.4000","624.0035","0.1064"
"374.7000","624.5031","0.1076"
"375.0000","625.0032","0.1089"
"375.3000","625.5035","0.1101"
"375.6000","626.0035","0.1114"
"375.9000","626.5032","0.1126"
"376.2000","627.0032","0.1139"
"376.5000","627.5034","0.1151"
"376.8000","628.0034","0.1163"
"377.1000","628.5030","0.1175"
"377.4000","629.0032","0.1187"
"377.7000","629.5036","0.1198"
"378.0000","630.0034","0.1210"
"378.3000","630.5032","0.1221"
"378.6000","631.0032","0.1232"
"378.9000","631.5035","0.1243"
"379.2000","632.0034","0.1254"
"379.5000","632.5031","0.1264"
"379.8000","633.0032","0.1274"
"380.1000","633.5035","0.1283"
"380.4000","634.0034","0.1293"
"380.7000","634.5032","0.1301"
"381.0000","635.0034","0.1310"
"381.3000","635.5035","0.1317"
"381.6000","636.0032","0.1325"
"381.9000","636.5031","0.1332"
"382.2000","637.0031","0.1339"
"382.5000","637.5034","0.1345"
"382.8000","638.0034","0.1351"
"383.1000","638.5031","0.1356"
"383.4000","639.0032","0.1361"
"383.7000","639.5037","0.1365"
"384.0000","640.0034","0.1368"
"384.3000","640.5032","0.1372"
"384.6000","641.0034","0.1374"
"384.9000","641.5035","0.1376"
"385.2000","642.0035","0.1377"
"385.5000","642.5032","0.1378"
"385.8000","643.0034","0.1378"
"386.1000","643.5036","0.1377"
"386.4000","644.0034","0.1377"
"386.7000","644.5031","0.1375"
"387.0000","645.0032","0.1373"
"387.3000","645.5034","0.1371"
"387.6000","646.0034","0.1368"
"387.9000","646.5031","0.1365"
"388.2000","647.0032","0.1361"
"388.5000","647.5034","0.1357"
"388.8000","648.0034","0.1354"
"389.1000","648.5031","0.1352"
"389.4000","649.0034","0.1350"
"389.7000","649.5035","0.1349"
"390.0000","650.0035","0.1350"
"390.3000","650.5032","0.1350"
"390.6000","651.0032","0.1352"
"390.9000","651.5035","0.1354"
"391.2000","652.0034","0.1356"
"391.5000","652.5031","0.1359"
"391.8000","653.0032","0.1362"
"392.1000","653.5034","0.1364"
"392.4000","654.0034","0.1367"
"392.7000","654.5031","0.1366"
"392.8680","654.7836","0.0801"