File: Force Calculations/Tensile Testing Results/Unbraided - 1.csv
Time,Displacement,Force
(s),(mm),(kN)
"0.0000","0.0000","0.0000"
"0.3000","0.4921","0.0005"
"0.6000","1.0016","0.0010"
"0.9000","1.5029","0.0017"
"1.2000","2.0031","0.0024"
"1.5000","2.5033","0.0030"
"1.8000","3.0033","0.0037"
"2.1000","3.5031","0.0043"
"2.4000","4.0031","0.0049"
"2.7000","4.5033","0.0055"
"3.0000","5.0035","0.0060"
"3.3000","5.5032","0.0065"
"3.6000","6.0031","0.0070"
"3.9000","6.5033","0.0075"
"4.2000","7.0033","0.0079"
"4.5000","7.5032","0.0083"
"4.8000","8.0031","0.0087"
"5.1000","8.5035","0.0091"
"5.4000","9.0036","0.0095"
"5.7000","9.5033","0.0098"
"6.0000","10.0032","0.0101"
"6.3000","10.5033","0.0105"
"6.6000","11.0033","0.0108"
"6.9000","11.5032","0.0111"
"7.2000","12.0029","0.0114"
"7.5000","12.5033","0.0117"
"7.8000","13.0033","0.0120"
"8.1000","13.5032","0.0122"
"8.4000","14.0031","0.0125"
"8.7000","14.5033","0.0127"
"9.0000","15.0035","0.0130"
"9.3000","15.5032","0.0133"
"9.6000","16.0031","0.0134"
"9.9000","16.5033","0.0137"
"10.2000","17.0035","0.0139"
"10.5000","17.5031","0.0141"
"10.8000","18.0032","0.0143"
"11.1000","18.5033","0.0145"
"11.4000","19.0035","0.0147"
"11.7000","19.5031","0.0149"
"12.0000","20.0031","0.0151"
"12.3000","20.5032","0.0153"
"12.6000","21.0033","0.0155"
"12.9000","21.5032","0.0156"
"13.2000","22.0032","0.0158"
"13.5000","22.5033","0.0160"
"13.8000","23.0033","0.0161"
"14.1000","23.5032","0.0163"
"14.4000","24.0031","0.0165"
"14.7000","24.5033","0.0166"
"15.0000","25.0035","0.0168"
"15.3000","25.5033","0.0169"
"15.6000","26.0032","0.0171"
"15.9000","26.5033","0.0172"
"16.2000","27.0035","0.0174"
"16.5000","27.5031","0.0175"
"16.8000","28.0029","0.0177"
"17.1000","28.5032","0.0178"
"17.4000","29.0033","0.0180"
"17.7000","29.5032","0.0181"
"18.0000","30.0031","0.0182"
"18.3000","30.5033","0.0183"
"18.6000","31.0033","0.0185"
"18.9000","31.5032","0.0186"
"19.2000","32.0032","0.0187"
"19.5000","32.5033","0.0188"
"19.8000","33.0035","0.0189"
"20.1000","33.5033","0.0191"
"20.4000","34.0032","0.0192"
"20.7000","34.5033","0.0193"
"21.0000","35.0035","0.0194"
"21.3000","35.5031","0.0195"
"21.6000","36.0031","0.0197"
"21.9000","36.5033","0.0197"
"22.2000","37.0035","0.0199"
"22.5000","37.5032","0.0200"
"22.8000","38.0031","0.0201"
"23.1000","38.5033","0.0202"
"23.4000","39.0033","0.0203"
"23.7000","39.5032","0.0204"
"24.0000","40.0031","0.0205"
"24.3000","40.5033","0.0206"
"24.6000","41.0035","0.0208"
"24.9000","41.5033","0.0208"
"25.2000","42.0032","0.0209"
"25.5000","42.5033","0.0211"
"25.8000","43.0033","0.0211"
"26.1000","43.5031","0.0213"
"26.4000","44.0031","0.0213"
"26.7000","44.5032","0.0215"
"27.0000","45.0033","0.0216"
"27.3000","45.5032","0.0216"
"27.6000","46.0031","0.0217"
"27.9000","46.5033","0.0219"
"28.2000","47.0035","0.0220"
"28.5000","47.5032","0.0220"
"28.8000","48.0031","0.0222"
"29.1000","48.5033","0.0223"
"29.4000","49.0035","0.0223"
"29.7000","49.5033","0.0224"
"30.0000","50.0032","0.0225"
"30.3000","50.5035","0.0226"
"30.6000","51.0033","0.0227"
"30.9000","51.5031","0.0228"
"31.2000","52.0031","0.0229"
"31.5000","52.5033","0.0230"
"31.8000","53.0035","0.0231"
"32.1000","53.5033","0.0232"
"32.4000","54.0032","0.0233"
"32.7000","54.5033","0.0234"
"33.0000","55.0033","0.0235"
"33.3000","55.5032","0.0236"
"33.6000","56.0031","0.0236"
"33.9000","56.5032","0.0237"
"34.2000","57.0036","0.0238"
"34.5000","57.5033","0.0239"
"34.8000","58.0032","0.0240"
"35.1000","58.5033","0.0241"
"35.4000","59.0035","0.0242"
"35.7000","59.5031","0.0243"
"36.0000","60.0031","0.0244"
"36.3000","60.5033","0.0245"
"36.6000","61.0035","0.0246"
"36.9000","61.5032","0.0246"
"37.2000","62.0031","0.0247"
"37.5000","62.5033","0.0248"
"37.8000","63.0033","0.0249"
"38.1000","63.5032","0.0250"
"38.4000","64.0032","0.0251"
"38.7000","64.5033","0.0252"
"39.0000","65.0035","0.0253"
"39.3000","65.5033","0.0254"
"39.6000","66.0032","0.0254"
"39.9000","66.5033","0.0255"
"40.2000","67.0033","0.0256"
"40.5000","67.5032","0.0257"
"40.8000","68.0029","0.0258"
"41.1000","68.5033","0.0259"
"41.4000","69.0035","0.0260"
"41.7000","69.5033","0.0261"
"42.0000","70.0031","0.0261"
"42.3000","70.5033","0.0262"
"42.6000","71.0034","0.0263"
"42.9000","71.5032","0.0264"
"43.2000","72.0031","0.0265"
"43.5000","72.5033","0.0265"
"43.8000","73.0036","0.0267"
"44.1000","73.5032","0.0267"
"44.4000","74.0032","0.0268"
"44.7000","74.5033","0.0269"
"45.0000","75.0035","0.0270"
"45.3000","75.5031","0.0271"
"45.6000","76.0031","0.0272"
"45.9000","76.5032","0.0273"
"46.2000","77.0035","0.0273"
"46.5000","77.5032","0.0274"
"46.8000","78.0031","0.0275"
"47.1000","78.5033","0.0276"
"47.4000","79.0035","0.0276"
"47.7000","79.5032","0.0278"
"48.0000","80.0032","0.0278"
"48.3000","80.5035","0.0279"
"48.6000","81.0036","0.0280"
"48.9000","81.5033","0.0281"
"49.2000","82.0032","0.0282"
"49.5000","82.5035","0.0283"
"49.8000","83.0035","0.0284"
"50.1000","83.5031","0.0285"
"50.4000","84.0031","0.0285"
"50.7000","84.5032","0.0286"
"51.0000","85.0034","0.0287"
"51.3000","85.5032","0.0288"
"51.6000","86.0031","0.0289"
"51.9000","86.5033","0.0290"
"52.2000","87.0033","0.0291"
"52.5000","87.5032","0.0292"
"52.8000","88.0031","0.0293"
"53.1000","88.5033","0.0294"
"53.4000","89.0034","0.0295"
"53.7000","89.5033","0.0295"
"54.0000","90.0032","0.0297"
"54.3000","90.5032","0.0298"
"54.6000","91.0033","0.0299"
"54.9000","91.5031","0.0300"
"55.2000","92.0031","0.0300"
"55.5000","92.5033","0.0302"
"55.8000","93.0034","0.0303"
"56.1000","93.5032","0.0303"
"56.4000","94.0032","0.0304"
"56.7000","94.5033","0.0306"
"57.0000","95.0033","0.0307"
"57.3000","95.5032","0.0308"
"57.6000","96.0032","0.0309"
"57.9000","96.5033","0.0310"
"58.2000","97.0035","0.0311"
"58.5000","97.5033","0.0312"
"58.8000","98.0031","0.0313"
"59.1000","98.5033","0.0314"
"59.4000","99.0035","0.0315"
"59.7000","99.5031","0.0316"
"60.0000","100.0031","0.0318"
"60.3000","100.5033","0.0319"
"60.6000","101.0033","0.0320"
"60.9000","101.5033","0.0321"
"61.2000","102.0031","0.0322"
"61.5000","102.5033","0.0323"
"61.8000","103.0034","0.0325"
"62.1000","103.5032","0.0326"
"62.4000","104.0031","0.0327"
"62.7000","104.5035","0.0328"
"63.0000","105.0035","0.0329"
"63.3000","105.5033","0.0330"
"63.6000","106.0032","0.0332"
"63.9000","106.5033","0.0333"
"64.2000","107.0034","0.0334"
"64.5000","107.5032","0.0336"
"64.8000","108.0029","0.0337"
"65.1000","108.5033","0.0338"
"65.4000","109.0035","0.0339"
"65.7000","109.5032","0.0340"
"66.0000","110.0031","0.0341"
"66.3000","110.5032","0.0343"
"66.6000","111.0034","0.0344"
"66.9000","111.5032","0.0346"
"67.2000","112.0031","0.0347"
"67.5000","112.5033","0.0348"
"67.8000","113.0035","0.0349"
"68.1000","113.5033","0.0350"
"68.4000","114.0032","0.0352"
"68.7000","114.5033","0.0353"
"69.0000","115.0034","0.0354"
"69.3000","115.5031","0.0356"
"69.6000","116.0029","0.0357"
"69.9000","116.5033","0.0358"
"70.2000","117.0035","0.0360"
"70.5000","117.5032","0.0361"
"70.8000","118.0031","0.0363"
"71.1000","118.5033","0.0364"
"71.4000","119.0033","0.0365"
"71.7000","119.5032","0.0367"
"72.0000","120.0031","0.0368"
"72.3000","120.5033","0.0370"
"72.6000","121.0034","0.0371"
"72.9000","121.5033","0.0373"
"73.2000","122.0031","0.0374"
"73.5000","122.5033","0.0376"
"73.8000","123.0035","0.0377"
"74.1000","123.5032","0.0379"
"74.4000","124.0031","0.0380"
"74.7000","124.5033","0.0382"
"75.0000","125.0033","0.0383"
"75.3000","125.5032","0.0385"
"75.6000","126.0032","0.0387"
"75.9000","126.5033","0.0388"
"76.2000","127.0034","0.0390"
"76.5000","127.5032","0.0391"
"76.8000","128.0031","0.0393"
"77.1000","128.5033","0.0394"
"77.4000","129.0034","0.0396"
"77.7000","129.5033","0.0397"
"78.0000","130.0032","0.0399"
"78.3000","130.5033","0.0400"
"78.6000","131.0034","0.0401"
"78.9000","131.5031","0.0401"
"79.2000","132.0030","0.0401"
"79.5000","132.5033","0.0399"
"79.8000","133.0033","0.0377"
"80.1000","133.5032","0.0371"
"80.4000","134.0032","0.0369"
"80.7000","134.5033","0.0368"
"81.0000","135.0034","0.0367"
"81.3000","135.5032","0.0367"
"81.6000","136.0029","0.0367"
"81.9000","136.5033","0.0367"
"82.2000","137.0034","0.0368"
"82.5000","137.5033","0.0369"
"82.8000","138.0032","0.0370"
"83.1000","138.5033","0.0372"
"83.4000","139.0034","0.0373"
"83.7000","139.5032","0.0375"
"84.0000","140.0030","0.0376"
"84.3000","140.5032","0.0378"
"84.6000","141.0034","0.0379"
"84.9000","141.5033","0.0381"
"85.2000","142.0031","0.0382"
"85.5000","142.5033","0.0383"
"85.8000","143.0034","0.0385"
"86.1000","143.5032","0.0386"
"86.4000","144.0030","0.0388"
"86.7000","144.5033","0.0390"
"87.0000","145.0036","0.0392"
"87.3000","145.5033","0.0393"
"87.6000","146.0032","0.0395"
"87.9000","146.5033","0.0397"
"88.2000","147.0034","0.0398"
"88.5000","147.5029","0.0401"
"88.8000","148.0030","0.0403"
"89.1000","148.5033","0.0404"
"89.4000","149.0033","0.0406"
"89.7000","149.5032","0.0409"
"90.0000","150.0031","0.0411"
"90.3000","150.5032","0.0413"
"90.6000","151.0034","0.0415"
"90.9000","151.5032","0.0417"
"91.2000","152.0030","0.0420"
"91.5000","152.5033","0.0422"
"91.8000","153.0036","0.0424"
"92.1000","153.5033","0.0426"
"92.4000","154.0032","0.0429"
"92.7000","154.5033","0.0431"
"93.0000","155.0034","0.0433"
"93.3000","155.5032","0.0436"
"93.6000","156.0029","0.0438"
"93.9000","156.5033","0.0440"
"94.2000","157.0033","0.0442"
"94.5000","157.5032","0.0444"
"94.8000","158.0031","0.0447"
"95.1000","158.5033","0.0448"
"95.4000","159.0034","0.0451"
"95.7000","159.5032","0.0453"
"96.0000","160.0030","0.0455"
"96.3000","160.5033","0.0457"
"96.6000","161.0034","0.0459"
"96.9000","161.5033","0.0461"
"97.2000","162.0032","0.0463"
"97.5000","162.5033","0.0465"
"97.8000","163.0033","0.0467"
"98.1000","163.5032","0.0469"
"98.4000","164.0029","0.0471"
"98.7000","164.5032","0.0473"
"99.0000","165.0033","0.0475"
"99.3000","165.5032","0.0477"
"99.6000","166.0032","0.0479"
"99.9000","166.5032","0.0481"
"100.2000","167.0034","0.0483"
"100.5000","167.5030","0.0485"
"100.8000","168.0030","0.0487"
"101.1000","168.5033","0.0488"
"101.4000","169.0034","0.0490"
"101.7000","169.5033","0.0492"
"102.0000","170.0032","0.0494"
"102.3000","170.5033","0.0496"
"102.6000","171.0034","0.0497"
"102.9000","171.5033","0.0500"
"103.2000","172.0031","0.0501"
"103.5000","172.5033","0.0502"
"103.8000","173.0034","0.0504"
"104.1000","173.5032","0.0506"
"104.4000","174.0030","0.0507"
"104.7000","174.5032","0.0509"
"105.0000","175.0034","0.0510"
"105.3000","175.5032","0.0511"
"105.6000","176.0030","0.0512"
"105.9000","176.5033","0.0512"
"106.2000","177.0033","0.0513"
"106.5000","177.5033","0.0513"
"106.8000","178.0032","0.0513"
"107.1000","178.5034","0.0513"
"107.4000","179.0034","0.0513"
"107.7000","179.5032","0.0512"
"108.0000","180.0031","0.0512"
"108.3000","180.5033","0.0512"
"108.6000","181.0034","0.0511"
"108.9000","181.5030","0.0512"
"109.2000","182.0030","0.0514"
"109.5000","182.5032","0.0516"
"109.8000","183.0033","0.0518"
"110.1000","183.5032","0.0521"
"110.4000","184.0032","0.0524"
"110.7000","184.5033","0.0526"
"111.0000","185.0034","0.0528"
"111.3000","185.5033","0.0530"
"111.6000","186.0031","0.0532"
"111.9000","186.5033","0.0533"
"112.2000","187.0034","0.0535"
"112.5000","187.5032","0.0536"
"112.8000","188.0030","0.0537"
"113.1000","188.5033","0.0538"
"113.4000","189.0033","0.0539"
"113.7000","189.5033","0.0539"
"114.0000","190.0030","0.0538"
"114.3000","190.5033","0.0536"
"114.6000","191.0033","0.0536"
"114.9000","191.5032","0.0538"
"115.2000","192.0030","0.0540"
"115.5000","192.5033","0.0541"
"115.8000","193.0034","0.0544"
"116.1000","193.5033","0.0546"
"116.4000","194.0032","0.0548"
"116.7000","194.5034","0.0550"
"117.0000","195.0034","0.0553"
"117.3000","195.5032","0.0556"
"117.6000","196.0030","0.0558"
"117.9000","196.5033","0.0561"
"118.2000","197.0033","0.0563"
"118.5000","197.5032","0.0566"
"118.8000","198.0030","0.0569"
"119.1000","198.5034","0.0571"
"119.4000","199.0034","0.0574"
"119.7000","199.5033","0.0577"
"120.0000","200.0032","0.0579"
"120.3000","200.5033","0.0582"
"120.6000","201.0036","0.0584"
"120.9000","201.5032","0.0587"
"121.2000","202.0032","0.0589"
"121.5000","202.5033","0.0591"
"121.8000","203.0034","0.0594"
"122.1000","203.5030","0.0597"
"122.4000","204.0030","0.0598"
"122.7000","204.5033","0.0600"
"123.0000","205.0034","0.0603"
"123.3000","205.5032","0.0605"
"123.6000","206.0030","0.0607"
"123.9000","206.5033","0.0609"
"124.2000","207.0034","0.0612"
"124.5000","207.5032","0.0614"
"124.8000","208.0031","0.0615"
"125.1000","208.5034","0.0618"
"125.4000","209.0036","0.0620"
"125.7000","209.5033","0.0622"
"126.0000","210.0030","0.0624"
"126.3000","210.5033","0.0627"
"126.6000","211.0033","0.0629"
"126.9000","211.5032","0.0631"
"127.2000","212.0029","0.0633"
"127.5000","212.5033","0.0635"
"127.8000","213.0033","0.0637"
"128.1000","213.5032","0.0639"
"128.4000","214.0030","0.0641"
"128.7000","214.5032","0.0644"
"129.0000","215.0034","0.0646"
"129.3000","215.5032","0.0648"
"129.6000","216.0031","0.0650"
"129.9000","216.5033","0.0652"
"130.2000","217.0036","0.0655"
"130.5000","217.5033","0.0656"
"130.8000","218.0032","0.0658"
"131.1000","218.5034","0.0660"
"131.4000","219.0034","0.0663"
"131.7000","219.5032","0.0664"
"132.0000","220.0029","0.0667"
"132.3000","220.5033","0.0669"
"132.6000","221.0033","0.0671"
"132.9000","221.5032","0.0673"
"133.2000","222.0030","0.0676"
"133.5000","222.5032","0.0678"
"133.8000","223.0034","0.0680"
"134.1000","223.5030","0.0683"
"134.4000","224.0030","0.0685"
"134.7000","224.5033","0.0687"
"135.0000","225.0034","0.0689"
"135.3000","225.5033","0.0692"
"135.6000","226.0032","0.0694"
"135.9000","226.5033","0.0696"
"136.2000","227.0033","0.0698"
"136.5000","227.5032","0.0701"
"136.8000","228.0030","0.0703"
"137.1000","228.5033","0.0705"
"137.4000","229.0034","0.0707"
"137.7000","229.5032","0.0709"
"138.0000","230.0030","0.0711"
"138.3000","230.5033","0.0713"
"138.6000","231.0034","0.0715"
"138.9000","231.5030","0.0717"
"139.2000","232.0032","0.0718"
"139.5000","232.5034","0.0720"
"139.8000","233.0034","0.0722"
"140.1000","233.5033","0.0723"
"140.4000","234.0032","0.0725"
"140.7000","234.5033","0.0726"
"141.0000","235.0034","0.0728"
"141.3000","235.5032","0.0729"
"141.6000","236.0030","0.0731"
"141.9000","236.5033","0.0732"
"142.2000","237.0033","0.0734"
"142.5000","237.5032","0.0735"
"142.8000","238.0031","0.0736"
"143.1000","238.5032","0.0737"
"143.4000","239.0033","0.0738"
"143.7000","239.5033","0.0740"
"144.0000","240.0030","0.0741"
"144.3000","240.5033","0.0742"
"144.6000","241.0034","0.0743"
"144.9000","241.5032","0.0744"
"145.2000","242.0032","0.0746"
"145.5000","242.5034","0.0747"
"145.8000","243.0034","0.0748"
"146.1000","243.5030","0.0750"
"146.4000","244.0032","0.0751"
"146.7000","244.5033","0.0752"
"147.0000","245.0034","0.0754"
"147.3000","245.5033","0.0756"
"147.6000","246.0030","0.0757"
"147.9000","246.5033","0.0758"
"148.2000","247.0033","0.0761"
"148.5000","247.5033","0.0762"
"148.8000","248.0032","0.0764"
"149.1000","248.5033","0.0766"
"149.4000","249.0034","0.0768"
"149.7000","249.5033","0.0770"
"150.0000","250.0030","0.0771"
"150.3000","250.5033","0.0773"
"150.6000","251.0033","0.0775"
"150.9000","251.5031","0.0777"
"151.2000","252.0030","0.0779"
"151.5000","252.5033","0.0781"
"151.8000","253.0033","0.0784"
"152.1000","253.5031","0.0786"
"152.4000","254.0030","0.0787"
"152.7000","254.5033","0.0789"
"153.0000","255.0034","0.0791"
"153.3000","255.5030","0.0793"
"153.6000","256.0031","0.0795"
"153.9000","256.5033","0.0796"
"154.2000","257.0035","0.0798"
"154.5000","257.5031","0.0799"
"154.8000","258.0031","0.0800"
"155.1000","258.5033","0.0800"
"155.4000","259.0034","0.0800"
"155.7000","259.5030","0.0794"
"156.0000","260.0030","0.0791"
"156.3000","260.5033","0.0790"
"156.6000","261.0034","0.0791"
"156.9000","261.5033","0.0794"
"157.2000","262.0030","0.0796"
"157.5000","262.5033","0.0800"
"157.8000","263.0034","0.0803"
"158.1000","263.5031","0.0807"
"158.4000","264.0031","0.0811"
"158.7000","264.5033","0.0814"
"159.0000","265.0034","0.0818"
"159.3000","265.5033","0.0822"
"159.6000","266.0030","0.0826"
"159.9000","266.5033","0.0830"
"160.2000","267.0033","0.0834"
"160.5000","267.5031","0.0837"
"160.8000","268.0030","0.0841"
"161.1000","268.5033","0.0844"
"161.4000","269.0031","0.0848"
"161.7000","269.5031","0.0852"
"162.0000","270.0030","0.0855"
"162.3000","270.5033","0.0858"
"162.6000","271.0034","0.0861"
"162.9000","271.5031","0.0864"
"163.2000","272.0030","0.0867"
"163.5000","272.5033","0.0869"
"163.8000","273.0035","0.0872"
"164.1000","273.5033","0.0875"
"164.4000","274.0030","0.0878"
"164.7000","274.5033","0.0880"
"165.0000","275.0034","0.0883"
"165.3000","275.5032","0.0886"
"165.6000","276.0030","0.0889"
"165.9000","276.5033","0.0892"
"166.2000","277.0033","0.0895"
"166.5000","277.5032","0.0897"
"166.8000","278.0031","0.0900"
"167.1000","278.5031","0.0903"
"167.4000","279.0034","0.0905"
"167.7000","279.5033","0.0908"
"168.0000","280.0032","0.0910"
"168.3000","280.5033","0.0912"
"168.6000","281.0034","0.0915"
"168.9000","281.5031","0.0917"
"169.2000","282.0031","0.0919"
"169.5000","282.5034","0.0921"
"169.8000","283.0034","0.0924"
"170.1000","283.5031","0.0926"
"170.4000","284.0029","0.0929"
"170.7000","284.5033","0.0931"
"171.0000","285.0034","0.0934"
"171.3000","285.5031","0.0935"
"171.6000","286.0030","0.0938"
"171.9000","286.5033","0.0940"
"172.2000","287.0033","0.0943"
"172.5000","287.5031","0.0945"
"172.8000","288.0030","0.0948"
"173.1000","288.5033","0.0950"
"173.4000","289.0033","0.0953"
"173.7000","289.5034","0.0956"
"174.0000","290.0030","0.0958"
"174.3000","290.5033","0.0960"
"174.6000","291.0033","0.0963"
"174.9000","291.5032","0.0966"
"175.2000","292.0030","0.0968"
"175.5000","292.5033","0.0970"
"175.8000","293.0034","0.0973"
"176.1000","293.5031","0.0975"
"176.4000","294.0030","0.0977"
"176.7000","294.5033","0.0980"
"177.0000","295.0033","0.0982"
"177.3000","295.5030","0.0985"
"177.6000","296.0030","0.0987"
"177.9000","296.5034","0.0989"
"178.2000","297.0035","0.0991"
"178.5000","297.5033","0.0993"
"178.8000","298.0031","0.0995"
"179.1000","298.5033","0.0998"
"179.4000","299.0034","0.0999"
"179.7000","299.5031","0.1002"
"180.0000","300.0029","0.1004"
"180.3000","300.5031","0.1005"
"180.6000","301.0033","0.1008"
"180.9000","301.5033","0.1010"
"181.2000","302.0030","0.1012"
"181.5000","302.5033","0.1014"
"181.8000","303.0033","0.1015"
"182.1000","303.5033","0.1017"
"182.4000","304.0030","0.1019"
"182.7000","304.5033","0.1022"
"183.0000","305.0033","0.1024"
"183.3000","305.5033","0.1025"
"183.6000","306.0033","0.1027"
"183.9000","306.5034","0.1029"
"184.2000","307.0033","0.1031"
"184.5000","307.5031","0.1034"
"184.8000","308.0031","0.1036"
"185.1000","308.5033","0.1038"
"185.4000","309.0033","0.1041"
"185.7000","309.5031","0.1043"
"186.0000","310.0032","0.1045"
"186.3000","310.5031","0.1048"
"186.6000","311.0034","0.1050"
"186.9000","311.5031","0.1053"
"187.2000","312.0030","0.1055"
"187.5000","312.5034","0.1057"
"187.8000","313.0035","0.1061"
"188.1000","313.5031","0.1063"
"188.4000","314.0031","0.1066"
"188.7000","314.5033","0.1068"
"189.0000","315.0035","0.1071"
"189.3000","315.5031","0.1073"
"189.6000","316.0030","0.1076"
"189.9000","316.5033","0.1079"
"190.2000","317.0033","0.1081"
"190.5000","317.5033","0.1084"
"190.8000","318.0030","0.1087"
"191.1000","318.5033","0.1090"
"191.4000","319.0034","0.1093"
"191.7000","319.5033","0.1095"
"192.0000","320.0031","0.1098"
"192.3000","320.5033","0.1101"
"192.6000","321.0034","0.1103"
"192.9000","321.5033","0.1106"
"193.2000","322.0031","0.1108"
"193.5000","322.5034","0.1111"
"193.8000","323.0033","0.1113"
"194.1000","323.5030","0.1116"
"194.4000","324.0030","0.1118"
"194.7000","324.5033","0.1121"
"195.0000","325.0033","0.1123"
"195.3000","325.5031","0.1126"
"195.6000","326.0031","0.1128"
"195.9000","326.5033","0.1130"
"196.2000","327.0034","0.1132"
"196.5000","327.5031","0.1135"
"196.8000","328.0030","0.1138"
"197.1000","328.5033","0.1140"
"197.4000","329.0034","0.1143"
"197.7000","329.5031","0.1145"
"198.0000","330.0030","0.1148"
"198.3000","330.5033","0.1150"
"198.6000","331.0034","0.1152"
"198.9000","331.5031","0.1154"
"199.2000","332.0030","0.1156"
"199.5000","332.5031","0.1158"
"199.8000","333.0033","0.1161"
"200.1000","333.5031","0.1163"
"200.4000","334.0031","0.1166"
"200.7000","334.5033","0.1168"
"201.0000","335.0034","0.1171"
"201.3000","335.5032","0.1174"
"201.6000","336.0031","0.1176"
"201.9000","336.5034","0.1179"
"202.2000","337.0034","0.1182"
"202.5000","337.5033","0.1186"
"202.8000","338.0030","0.1189"
"203.1000","338.5034","0.1192"
"203.4000","339.0033","0.1195"
"203.7000","339.5030","0.1199"
"204.0000","340.0029","0.1203"
"204.3000","340.5033","0.1207"
"204.6000","341.0033","0.1211"
"204.9000","341.5031","0.1215"
"205.2000","342.0029","0.1219"
"205.5000","342.5033","0.1224"
"205.8000","343.0034","0.1228"
"206.1000","343.5031","0.1233"
"206.4000","344.0030","0.1237"
"206.7000","344.5033","0.1242"
"207.0000","345.0034","0.1246"
"207.3000","345.5033","0.1251"
"207.6000","346.0031","0.1255"
"207.9000","346.5033","0.1260"
"208.2000","347.0033","0.1264"
"208.5000","347.5031","0.1269"
"208.8000","348.0030","0.1273"
"209.1000","348.5033","0.1278"
"209.4000","349.0033","0.1282"
"209.7000","349.5032","0.1287"
"210.0000","350.0030","0.1291"
"210.3000","350.5033","0.1296"
"210.6000","351.0034","0.1300"
"210.9000","351.5031","0.1304"
"211.2000","352.0031","0.1308"
"211.5000","352.5033","0.1312"
"211.8000","353.0034","0.1316"
"212.1000","353.5033","0.1321"
"212.4000","354.0032","0.1324"
"212.7000","354.5034","0.1329"
"213.0000","355.0035","0.1332"
"213.3000","355.5031","0.1337"
"213.6000","356.0030","0.1340"
"213.9000","356.5033","0.1344"
"214.2000","357.0034","0.1348"
"214.5000","357.5033","0.1351"
"214.8000","358.0029","0.1355"
"215.1000","358.5033","0.1359"
"215.4000","359.0034","0.1362"
"215.7000","359.5033","0.1365"
"216.0000","360.0030","0.1369"
"216.3000","360.5034","0.1371"
"216.6000","361.0034","0.1374"
"216.9000","361.5033","0.1377"
"217.2000","362.0031","0.1379"
"217.5000","362.5034","0.1382"
"217.8000","363.0033","0.1384"
"218.1000","363.5031","0.1387"
"218.4000","364.0031","0.1389"
"218.7000","364.5033","0.1392"
"219.0000","365.0033","0.1394"
"219.3000","365.5031","0.1397"
"219.6000","366.0031","0.1399"
"219.9000","366.5031","0.1402"
"220.2000","367.0034","0.1405"
"220.5000","367.5031","0.1407"
"220.8000","368.0030","0.1410"
"221.1000","368.5033","0.1413"
"221.4000","369.0034","0.1416"
"221.7000","369.5031","0.1419"
"222.0000","370.0030","0.1422"
"222.3000","370.5033","0.1425"
"222.6000","371.0034","0.1428"
"222.9000","371.5031","0.1431"
"223.2000","372.0030","0.1434"
"223.5000","372.5034","0.1437"
"223.8000","373.0033","0.1440"
"224.1000","373.5033","0.1443"
"224.4000","374.0031","0.1446"
"224.7000","374.5033","0.1449"
"225.0000","375.0033","0.1452"
"225.3000","375.5031","0.1456"
"225.6000","376.0031","0.1459"
"225.9000","376.5034","0.1462"
"226.2000","377.0033","0.1465"
"226.5000","377.5033","0.1469"
"226.8000","378.0030","0.1472"
"227.1000","378.5033","0.1476"
"227.4000","379.0034","0.1479"
"227.7000","379.5030","0.1483"
"228.0000","380.0029","0.1487"
"228.3000","380.5033","0.1491"
"228.6000","381.0034","0.1494"
"228.9000","381.5031","0.1498"
"229.2000","382.0031","0.1502"
"229.5000","382.5033","0.1506"
"229.8000","383.0034","0.1510"
"230.1000","383.5031","0.1514"
"230.4000","384.0029","0.1518"
"230.7000","384.5033","0.1522"
"231.0000","385.0034","0.1526"
"231.3000","385.5033","0.1530"
"231.6000","386.0031","0.1534"
"231.9000","386.5033","0.1538"
"232.2000","387.0034","0.1542"
"232.5000","387.5031","0.1546"
"232.8000","388.0030","0.1550"
"233.1000","388.5031","0.1553"
"233.4000","389.0033","0.1557"
"233.7000","389.5033","0.1561"
"234.0000","390.0031","0.1564"
"234.3000","390.5033","0.1568"
"234.6000","391.0033","0.1571"
"234.9000","391.5033","0.1575"
"235.2000","392.0030","0.1579"
"235.5000","392.5033","0.1582"
"235.8000","393.0034","0.1585"
"236.1000","393.5032","0.1588"
"236.4000","394.0030","0.1591"
"236.7000","394.5034","0.1594"
"237.0000","395.0034","0.1597"
"237.3000","395.5031","0.1599"
"237.6000","396.0029","0.1602"
"237.9000","396.5033","0.1604"
"238.2000","397.0034","0.1607"
"238.5000","397.5031","0.1610"
"238.8000","398.0030","0.1612"
"239.1000","398.5033","0.1615"
"239.4000","399.0034","0.1617"
"239.7000","399.5033","0.1620"
"240.0000","400.0030","0.1623"
"240.3000","400.5033","0.1625"
"240.6000","401.0035","0.1628"
"240.9000","401.5033","0.1631"
"241.2000","402.0031","0.1634"
"241.5000","402.5033","0.1637"
"241.8000","403.0033","0.1639"
"242.1000","403.5031","0.1642"
"242.4000","404.0030","0.1644"
"242.7000","404.5033","0.1646"
"243.0000","405.0033","0.1649"
"243.3000","405.5030","0.1651"
"243.6000","406.0031","0.1653"
"243.9000","406.5033","0.1656"
"244.2000","407.0035","0.1658"
"244.5000","407.5031","0.1660"
"244.8000","408.0030","0.1662"
"245.1000","408.5033","0.1664"
"245.4000","409.0034","0.1667"
"245.7000","409.5033","0.1670"
"246.0000","410.0030","0.1673"
"246.3000","410.5034","0.1677"
"246.6000","411.0034","0.1680"
"246.9000","411.5031","0.1684"
"247.2000","412.0029","0.1689"
"247.5000","412.5031","0.1693"
"247.8000","413.0033","0.1698"
"248.1000","413.5033","0.1702"
"248.4000","414.0029","0.1707"
"248.7000","414.5033","0.1712"
"249.0000","415.0033","0.1717"
"249.3000","415.5033","0.1723"
"249.6000","416.0030","0.1728"
"249.9000","416.5033","0.1733"
"250.2000","417.0034","0.1739"
"250.5000","417.5035","0.1744"
"250.8000","418.0033","0.1749"
"251.1000","418.5033","0.1754"
"251.4000","419.0033","0.1760"
"251.7000","419.5031","0.1766"
"252.0000","420.0031","0.1772"
"252.3000","420.5031","0.1778"
"252.6000","421.0033","0.1783"
"252.9000","421.5031","0.1789"
"253.2000","422.0030","0.1795"
"253.5000","422.5034","0.1801"
"253.8000","423.0035","0.1807"
"254.1000","423.5031","0.1813"
"254.4000","424.0030","0.1818"
"254.7000","424.5033","0.1824"
"255.0000","425.0034","0.1830"
"255.3000","425.5033","0.1836"
"255.6000","426.0031","0.1842"
"255.9000","426.5033","0.1848"
"256.2000","427.0034","0.1853"
"256.5000","427.5033","0.1859"
"256.8000","428.0030","0.1864"
"257.1000","428.5031","0.1870"
"257.4000","429.0033","0.1875"
"257.7000","429.5033","0.1881"
"258.0000","430.0030","0.1886"
"258.3000","430.5033","0.1891"
"258.6000","431.0034","0.1897"
"258.9000","431.5031","0.1901"
"259.2000","432.0031","0.1907"
"259.5000","432.5033","0.1912"
"259.8000","433.0033","0.1917"
"260.1000","433.5033","0.1922"
"260.4000","434.0031","0.1927"
"260.7000","434.5034","0.1931"
"261.0000","435.0034","0.1936"
"261.3000","435.5031","0.1941"
"261.6000","436.0030","0.1946"
"261.9000","436.5031","0.1950"
"262.2000","437.0034","0.1955"
"262.5000","437.5030","0.1960"
"262.8000","438.0030","0.1964"
"263.1000","438.5033","0.1968"
"263.4000","439.0034","0.1973"
"263.7000","439.5033","0.1977"
"264.0000","440.0030","0.1981"
"264.3000","440.5031","0.1985"
"264.6000","441.0034","0.1989"
"264.9000","441.5033","0.1993"
"265.2000","442.0031","0.1997"
"265.5000","442.5033","0.2001"
"265.8000","443.0034","0.2005"
"266.1000","443.5031","0.2008"
"266.4000","444.0030","0.2012"
"266.7000","444.5031","0.2016"
"267.0000","445.0033","0.2020"
"267.3000","445.5033","0.2024"
"267.6000","446.0031","0.2028"
"267.9000","446.5033","0.2032"
"268.2000","447.0034","0.2036"
"268.5000","447.5031","0.2039"
"268.8000","448.0030","0.2043"
"269.1000","448.5034","0.2048"
"269.4000","449.0033","0.2051"
"269.7000","449.5031","0.2056"
"270.0000","450.0031","0.2060"
"270.3000","450.5034","0.2063"
"270.6000","451.0034","0.2067"
"270.9000","451.5031","0.2071"
"271.2000","452.0030","0.2075"
"271.5000","452.5031","0.2079"
"271.8000","453.0034","0.2083"
"272.1000","453.5031","0.2087"
"272.4000","454.0030","0.2091"
"272.7000","454.5034","0.2094"
"273.0000","455.0033","0.2098"
"273.3000","455.5033","0.2102"
"273.6000","456.0032","0.2105"
"273.9000","456.5033","0.2108"
"274.2000","457.0034","0.2112"
"274.5000","457.5033","0.2115"
"274.8000","458.0031","0.2118"
"275.1000","458.5033","0.2120"
"275.4000","459.0033","0.2123"
"275.7000","459.5031","0.2125"
"276.0000","460.0031","0.2126"
"276.3000","460.5033","0.2126"
"276.6000","461.0033","0.2126"
"276.9000","461.5031","0.2126"
"277.2000","462.0030","0.2125"
"277.5000","462.5033","0.2125"
"277.8000","463.0034","0.2126"
"278.1000","463.5031","0.2128"
"278.4000","464.0031","0.2131"
"278.7000","464.5033","0.2136"
"279.0000","465.0034","0.2140"
"279.3000","465.5033","0.2146"
"279.6000","466.0030","0.2152"
"279.9000","466.5034","0.2158"
"280.2000","467.0035","0.2164"
"280.5000","467.5031","0.2170"
"280.8000","468.0030","0.2176"
"281.1000","468.5033","0.2183"
"281.4000","469.0031","0.2188"
"281.7000","469.5031","0.2194"
"282.0000","470.0031","0.2200"
"282.3000","470.5033","0.2206"
"282.6000","471.0033","0.2211"
"282.9000","471.5033","0.2216"
"283.2000","472.0031","0.2221"
"283.5000","472.5031","0.2225"
"283.8000","473.0034","0.2229"
"284.1000","473.5033","0.2232"
"284.4000","474.0034","0.1384"
"284.7000","474.5034","0.1375"
"285.0000","475.0035","0.1374"
"285.3000","475.5031","0.1376"
"285.6000","476.0031","0.1380"
"285.9000","476.5033","0.1384"
"286.2000","477.0033","0.1390"
"286.5000","477.5030","0.1396"
"286.8000","478.0030","0.1402"
"287.1000","478.5033","0.1408"
"287.4000","479.0034","0.1414"
"287.7000","479.5031","0.1421"
"288.0000","480.0031","0.1427"
"288.3000","480.5033","0.1433"
"288.6000","481.0034","0.1440"
"288.9000","481.5033","0.1446"
"289.2000","482.0030","0.1453"
"289.5000","482.5033","0.1459"
"289.8000","483.0034","0.1465"
"290.1000","483.5031","0.1471"
"290.4000","484.0030","0.1477"
"290.7000","484.5031","0.1484"
"291.0000","485.0033","0.1489"
"291.3000","485.5033","0.1495"
"291.6000","486.0031","0.1501"
"291.9000","486.5033","0.1507"
"292.2000","487.0033","0.1513"
"292.5000","487.5031","0.1518"
"292.8000","488.0031","0.1524"
"293.1000","488.5033","0.1529"
"293.4000","489.0033","0.1534"
"293.7000","489.5031","0.1540"
"294.0000","490.0031","0.1545"
"294.3000","490.5034","0.1550"
"294.6000","491.0035","0.1555"
"294.9000","491.5031","0.1560"
"295.2000","492.0030","0.1565"
"295.5000","492.5033","0.1569"
"295.8000","493.0033","0.1574"
"296.1000","493.5031","0.1578"
"296.4000","494.0030","0.1582"
"296.7000","494.5031","0.1586"
"297.0000","495.0034","0.1590"
"297.3000","495.5033","0.1594"
"297.6000","496.0031","0.1598"
"297.9000","496.5033","0.1601"
"298.2000","497.0034","0.1604"
"298.5000","497.5033","0.1608"
"298.8000","498.0031","0.1611"
"299.1000","498.5033","0.1614"
"299.4000","499.0034","0.1617"
"299.7000","499.5033","0.1620"
"300.0000","500.0032","0.1623"
"300.3000","500.5031","0.1625"
"300.6000","501.0032","0.1628"
"300.9000","501.5032","0.1631"
"301.2000","502.0031","0.1634"
"301.5000","502.5032","0.1636"
"301.8000","503.0035","0.1639"
"302.1000","503.5034","0.1642"
"302.4000","504.0031","0.1644"
"302.7000","504.5032","0.1647"
"303.0000","505.0034","0.1649"
"303.3000","505.5032","0.1652"
"303.6000","506.0031","0.1654"
"303.9000","506.5034","0.1657"
"304.2000","507.0034","0.1659"
"304.5000","507.5032","0.1662"
"304.8000","508.0031","0.1664"
"305.1000","508.5033","0.1667"
"305.4000","509.0033","0.1669"
"305.7000","509.5031","0.1672"
"306.0000","510.0031","0.1674"
"306.3000","510.5034","0.1677"
"306.6000","511.0035","0.1680"
"306.9000","511.5031","0.1683"
"307.2000","512.0031","0.1685"
"307.5000","512.5032","0.1687"
"307.8000","513.0034","0.1690"
"308.1000","513.5032","0.1693"
"308.4000","514.0032","0.1696"
"308.7000","514.5034","0.1698"
"309.0000","515.0034","0.1701"
"309.3000","515.5032","0.1704"
"309.6000","516.0031","0.1707"
"309.9000","516.5032","0.1709"
"310.2000","517.0034","0.1712"
"310.5000","517.5032","0.1715"
"310.8000","518.0031","0.1717"
"311.1000","518.5034","0.1720"
"311.4000","519.0034","0.1722"
"311.7000","519.5032","0.1725"
"312.0000","520.0031","0.1727"
"312.3000","520.5034","0.1730"
"312.6000","521.0034","0.1732"
"312.9000","521.5034","0.1735"
"313.2000","522.0031","0.1737"
"313.5000","522.5034","0.1740"
"313.8000","523.0034","0.1742"
"314.1000","523.5032","0.1744"
"314.4000","524.0030","0.1747"
"314.7000","524.5034","0.1750"
"315.0000","525.0032","0.1752"
"315.3000","525.5032","0.1755"
"315.6000","526.0031","0.1757"
"315.9000","526.5032","0.1759"
"316.2000","527.0034","0.1761"
"316.5000","527.5032","0.1764"
"316.8000","528.0032","0.1767"
"317.1000","528.5034","0.1769"
"317.4000","529.0032","0.1771"
"317.7000","529.5032","0.1774"
"318.0000","530.0032","0.1776"
"318.3000","530.5034","0.1779"
"318.6000","531.0035","0.1781"
"318.9000","531.5031","0.1783"
"319.2000","532.0031","0.1786"
"319.5000","532.5032","0.1788"
"319.8000","533.0034","0.1791"
"320.1000","533.5032","0.1793"
"320.4000","534.0032","0.1796"
"320.7000","534.5034","0.1799"
"321.0000","535.0035","0.1802"
"321.3000","535.5032","0.1804"
"321.6000","536.0031","0.1807"
"321.9000","536.5032","0.1809"
"322.2000","537.0034","0.1812"
"322.5000","537.5032","0.1815"
"322.8000","538.0031","0.1817"
"323.1000","538.5034","0.1820"
"323.4000","539.0032","0.1823"
"323.7000","539.5032","0.1825"
"324.0000","540.0029","0.1828"
"324.3000","540.5032","0.1831"
"324.6000","541.0032","0.1834"
"324.9000","541.5032","0.1836"
"325.2000","542.0031","0.1839"
"325.5000","542.5034","0.1842"
"325.8000","543.0034","0.1845"
"326.1000","543.5031","0.1848"
"326.4000","544.0031","0.1851"
"326.7000","544.5034","0.1853"
"327.0000","545.0034","0.1856"
"327.3000","545.5034","0.1859"
"327.6000","546.0032","0.1861"
"327.9000","546.5034","0.1864"
"328.2000","547.0034","0.1867"
"328.5000","547.5032","0.1869"
"328.8000","548.0029","0.1872"
"329.1000","548.5032","0.1874"
"329.4000","549.0034","0.1877"
"329.7000","549.5032","0.1879"
"330.0000","550.0031","0.1882"
"330.3000","550.5032","0.1884"
"330.6000","551.0034","0.1886"
"330.9000","551.5032","0.1889"
"331.2000","552.0031","0.1891"
"331.5000","552.5032","0.1894"
"331.8000","553.0034","0.1896"
"332.1000","553.5032","0.1898"
"332.4000","554.0032","0.1900"
"332.7000","554.5034","0.1903"
"333.0000","555.0035","0.1905"
"333.3000","555.5031","0.1907"
"333.6000","556.0030","0.1910"
"333.9000","556.5032","0.1912"
"334.2000","557.0032","0.1915"
"334.5000","557.5031","0.1917"
"334.8000","558.0029","0.1920"
"335.1000","558.5034","0.1923"
"335.4000","559.0035","0.1925"
"335.7000","559.5032","0.1928"
"336.0000","560.0031","0.1931"
"336.3000","560.5034","0.1933"
"336.6000","561.0034","0.1936"
"336.9000","561.5032","0.1939"
"337.2000","562.0031","0.1942"
"337.5000","562.5035","0.1944"
"337.8000","563.0034","0.1947"
"338.1000","563.5032","0.1950"
"338.4000","564.0031","0.1953"
"338.7000","564.5032","0.1956"
"339.0000","565.0034","0.1958"
"339.3000","565.5032","0.1961"
"339.6000","566.0031","0.1963"
"339.9000","566.5032","0.1966"
"340.2000","567.0034","0.1969"
"340.5000","567.5032","0.1972"
"340.8000","568.0031","0.1974"
"341.1000","568.5032","0.1977"
"341.4000","569.0035","0.1980"
"341.7000","569.5032","0.1982"
"342.0000","570.0032","0.1984"
"342.3000","570.5034","0.1987"
"342.6000","571.0035","0.1988"
"342.9000","571.5031","0.1989"
"343.1100","571.8541","0.1146"