File: Force Calculations/Tensile Testing Results/Unbraided - 2.csv
Time,Displacement,Force
(s),(mm),(kN)
"0.0000","0.0000","0.0001"
"0.3000","0.4919","0.0011"
"0.6000","1.0013","0.0027"
"0.9000","1.5029","0.0045"
"1.2000","2.0031","0.0064"
"1.5000","2.5029","0.0083"
"1.8000","3.0032","0.0101"
"2.1000","3.5033","0.0118"
"2.4000","4.0033","0.0134"
"2.7000","4.5031","0.0149"
"3.0000","5.0035","0.0163"
"3.3000","5.5035","0.0176"
"3.6000","6.0033","0.0189"
"3.9000","6.5031","0.0200"
"4.2000","7.0035","0.0211"
"4.5000","7.5033","0.0221"
"4.8000","8.0032","0.0230"
"5.1000","8.5031","0.0239"
"5.4000","9.0033","0.0247"
"5.7000","9.5032","0.0254"
"6.0000","10.0031","0.0261"
"6.3000","10.5029","0.0267"
"6.6000","11.0032","0.0274"
"6.9000","11.5035","0.0279"
"7.2000","12.0033","0.0284"
"7.5000","12.5032","0.0289"
"7.8000","13.0035","0.0294"
"8.1000","13.5035","0.0298"
"8.4000","14.0032","0.0303"
"8.7000","14.5029","0.0307"
"9.0000","15.0032","0.0310"
"9.3000","15.5035","0.0313"
"9.6000","16.0031","0.0317"
"9.9000","16.5032","0.0320"
"10.2000","17.0033","0.0324"
"10.5000","17.5033","0.0326"
"10.8000","18.0028","0.0329"
"11.1000","18.5032","0.0332"
"11.4000","19.0031","0.0334"
"11.7000","19.5035","0.0337"
"12.0000","20.0033","0.0339"
"12.3000","20.5032","0.0341"
"12.6000","21.0035","0.0344"
"12.9000","21.5036","0.0346"
"13.2000","22.0032","0.0348"
"13.5000","22.5031","0.0350"
"13.8000","23.0033","0.0352"
"14.1000","23.5035","0.0354"
"14.4000","24.0033","0.0356"
"14.7000","24.5031","0.0357"
"15.0000","25.0033","0.0359"
"15.3000","25.5033","0.0361"
"15.6000","26.0031","0.0362"
"15.9000","26.5031","0.0364"
"16.2000","27.0033","0.0365"
"16.5000","27.5035","0.0367"
"16.8000","28.0032","0.0368"
"17.1000","28.5032","0.0369"
"17.4000","29.0035","0.0370"
"17.7000","29.5033","0.0372"
"18.0000","30.0032","0.0373"
"18.3000","30.5032","0.0375"
"18.6000","31.0033","0.0376"
"18.9000","31.5036","0.0377"
"19.2000","32.0033","0.0378"
"19.5000","32.5031","0.0379"
"19.8000","33.0031","0.0380"
"20.1000","33.5033","0.0381"
"20.4000","34.0031","0.0383"
"20.7000","34.5031","0.0384"
"21.0000","35.0032","0.0384"
"21.3000","35.5035","0.0385"
"21.6000","36.0032","0.0386"
"21.9000","36.5032","0.0388"
"22.2000","37.0035","0.0389"
"22.5000","37.5033","0.0389"
"22.8000","38.0032","0.0390"
"23.1000","38.5032","0.0391"
"23.4000","39.0033","0.0391"
"23.7000","39.5035","0.0392"
"24.0000","40.0032","0.0393"
"24.3000","40.5032","0.0393"
"24.6000","41.0033","0.0394"
"24.9000","41.5033","0.0389"
"25.2000","42.0032","0.0390"
"25.5000","42.5031","0.0391"
"25.8000","43.0033","0.0392"
"26.1000","43.5035","0.0393"
"26.4000","44.0033","0.0395"
"26.7000","44.5032","0.0396"
"27.0000","45.0033","0.0397"
"27.3000","45.5033","0.0398"
"27.6000","46.0032","0.0399"
"27.9000","46.5031","0.0400"
"28.2000","47.0033","0.0401"
"28.5000","47.5035","0.0402"
"28.8000","48.0032","0.0403"
"29.1000","48.5031","0.0404"
"29.4000","49.0033","0.0405"
"29.7000","49.5032","0.0406"
"30.0000","50.0031","0.0407"
"30.3000","50.5031","0.0407"
"30.6000","51.0032","0.0408"
"30.9000","51.5035","0.0409"
"31.2000","52.0033","0.0410"
"31.5000","52.5032","0.0411"
"31.8000","53.0033","0.0411"
"32.1000","53.5033","0.0412"
"32.4000","54.0032","0.0413"
"32.7000","54.5031","0.0414"
"33.0000","55.0033","0.0415"
"33.3000","55.5035","0.0416"
"33.6000","56.0033","0.0417"
"33.9000","56.5031","0.0417"
"34.2000","57.0033","0.0418"
"34.5000","57.5033","0.0419"
"34.8000","58.0032","0.0420"
"35.1000","58.5031","0.0421"
"35.4000","59.0033","0.0422"
"35.7000","59.5033","0.0423"
"36.0000","60.0032","0.0424"
"36.3000","60.5031","0.0425"
"36.6000","61.0035","0.0426"
"36.9000","61.5033","0.0427"
"37.2000","62.0032","0.0428"
"37.5000","62.5032","0.0429"
"37.8000","63.0035","0.0430"
"38.1000","63.5033","0.0431"
"38.4000","64.0033","0.0432"
"38.7000","64.5031","0.0433"
"39.0000","65.0033","0.0434"
"39.3000","65.5033","0.0435"
"39.6000","66.0032","0.0436"
"39.9000","66.5031","0.0438"
"40.2000","67.0034","0.0439"
"40.5000","67.5034","0.0440"
"40.8000","68.0033","0.0441"
"41.1000","68.5032","0.0442"
"41.4000","69.0033","0.0443"
"41.7000","69.5035","0.0445"
"42.0000","70.0032","0.0446"
"42.3000","70.5032","0.0447"
"42.6000","71.0033","0.0448"
"42.9000","71.5035","0.0449"
"43.2000","72.0032","0.0450"
"43.5000","72.5031","0.0452"
"43.8000","73.0032","0.0453"
"44.1000","73.5032","0.0454"
"44.4000","74.0031","0.0455"
"44.7000","74.5031","0.0457"
"45.0000","75.0033","0.0458"
"45.3000","75.5035","0.0459"
"45.6000","76.0033","0.0460"
"45.9000","76.5032","0.0461"
"46.2000","77.0033","0.0463"
"46.5000","77.5034","0.0463"
"46.8000","78.0032","0.0465"
"47.1000","78.5031","0.0466"
"47.4000","79.0033","0.0467"
"47.7000","79.5035","0.0468"
"48.0000","80.0032","0.0470"
"48.3000","80.5031","0.0471"
"48.6000","81.0033","0.0472"
"48.9000","81.5031","0.0473"
"49.2000","82.0031","0.0475"
"49.5000","82.5031","0.0476"
"49.8000","83.0033","0.0477"
"50.1000","83.5035","0.0478"
"50.4000","84.0033","0.0480"
"50.7000","84.5032","0.0481"
"51.0000","85.0033","0.0482"
"51.3000","85.5033","0.0483"
"51.6000","86.0032","0.0484"
"51.9000","86.5032","0.0485"
"52.2000","87.0035","0.0486"
"52.5000","87.5035","0.0487"
"52.8000","88.0032","0.0489"
"53.1000","88.5031","0.0489"
"53.4000","89.0033","0.0491"
"53.7000","89.5033","0.0492"
"54.0000","90.0031","0.0493"
"54.3000","90.5031","0.0494"
"54.6000","91.0032","0.0495"
"54.9000","91.5035","0.0497"
"55.2000","92.0032","0.0498"
"55.5000","92.5032","0.0499"
"55.8000","93.0033","0.0500"
"56.1000","93.5033","0.0501"
"56.4000","94.0032","0.0503"
"56.7000","94.5031","0.0504"
"57.0000","95.0035","0.0505"
"57.3000","95.5035","0.0506"
"57.6000","96.0032","0.0508"
"57.9000","96.5032","0.0509"
"58.2000","97.0033","0.0511"
"58.5000","97.5032","0.0512"
"58.8000","98.0031","0.0513"
"59.1000","98.5029","0.0515"
"59.4000","99.0032","0.0516"
"59.7000","99.5034","0.0518"
"60.0000","100.0032","0.0519"
"60.3000","100.5032","0.0520"
"60.6000","101.0035","0.0521"
"60.9000","101.5033","0.0522"
"61.2000","102.0032","0.0524"
"61.5000","102.5031","0.0525"
"61.8000","103.0033","0.0526"
"62.1000","103.5034","0.0527"
"62.4000","104.0033","0.0528"
"62.7000","104.5031","0.0530"
"63.0000","105.0033","0.0531"
"63.3000","105.5032","0.0532"
"63.6000","106.0031","0.0533"
"63.9000","106.5031","0.0534"
"64.2000","107.0032","0.0535"
"64.5000","107.5034","0.0537"
"64.8000","108.0033","0.0538"
"65.1000","108.5032","0.0539"
"65.4000","109.0033","0.0540"
"65.7000","109.5035","0.0541"
"66.0000","110.0032","0.0542"
"66.3000","110.5032","0.0543"
"66.6000","111.0034","0.0544"
"66.9000","111.5034","0.0544"
"67.2000","112.0032","0.0545"
"67.5000","112.5032","0.0546"
"67.8000","113.0032","0.0548"
"68.1000","113.5033","0.0549"
"68.4000","114.0031","0.0549"
"68.7000","114.5031","0.0551"
"69.0000","115.0033","0.0551"
"69.3000","115.5035","0.0552"
"69.6000","116.0033","0.0553"
"69.9000","116.5032","0.0554"
"70.2000","117.0035","0.0555"
"70.5000","117.5034","0.0556"
"70.8000","118.0032","0.0557"
"71.1000","118.5032","0.0559"
"71.4000","119.0033","0.0560"
"71.7000","119.5033","0.0561"
"72.0000","120.0032","0.0562"
"72.3000","120.5032","0.0563"
"72.6000","121.0034","0.0565"
"72.9000","121.5032","0.0566"
"73.2000","122.0031","0.0567"
"73.5000","122.5031","0.0568"
"73.8000","123.0032","0.0569"
"74.1000","123.5035","0.0570"
"74.4000","124.0032","0.0571"
"74.7000","124.5032","0.0572"
"75.0000","125.0034","0.0573"
"75.3000","125.5034","0.0574"
"75.6000","126.0032","0.0575"
"75.9000","126.5032","0.0576"
"76.2000","127.0033","0.0577"
"76.5000","127.5033","0.0578"
"76.8000","128.0032","0.0579"
"77.1000","128.5030","0.0580"
"77.4000","129.0032","0.0581"
"77.7000","129.5033","0.0582"
"78.0000","130.0030","0.0582"
"78.3000","130.5030","0.0583"
"78.6000","131.0033","0.0584"
"78.9000","131.5033","0.0585"
"79.2000","132.0033","0.0586"
"79.5000","132.5032","0.0586"
"79.8000","133.0034","0.0588"
"80.1000","133.5034","0.0588"
"80.4000","134.0030","0.0589"
"80.7000","134.5030","0.0590"
"81.0000","135.0034","0.0591"
"81.3000","135.5034","0.0592"
"81.6000","136.0032","0.0594"
"81.9000","136.5030","0.0594"
"82.2000","137.0033","0.0596"
"82.5000","137.5033","0.0597"
"82.8000","138.0030","0.0598"
"83.1000","138.5029","0.0600"
"83.4000","139.0033","0.0601"
"83.7000","139.5033","0.0602"
"84.0000","140.0033","0.0603"
"84.3000","140.5032","0.0605"
"84.6000","141.0033","0.0606"
"84.9000","141.5033","0.0607"
"85.2000","142.0032","0.0608"
"85.5000","142.5032","0.0609"
"85.8000","143.0033","0.0610"
"86.1000","143.5034","0.0611"
"86.4000","144.0030","0.0612"
"86.7000","144.5032","0.0612"
"87.0000","145.0033","0.0613"
"87.3000","145.5032","0.0613"
"87.6000","146.0032","0.0614"
"87.9000","146.5031","0.0615"
"88.2000","147.0033","0.0615"
"88.5000","147.5034","0.0616"
"88.8000","148.0032","0.0616"
"89.1000","148.5032","0.0616"
"89.4000","149.0034","0.0617"
"89.7000","149.5034","0.0618"
"90.0000","150.0032","0.0619"
"90.3000","150.5032","0.0620"
"90.6000","151.0033","0.0620"
"90.9000","151.5034","0.0621"
"91.2000","152.0032","0.0621"
"91.5000","152.5030","0.0622"
"91.8000","153.0033","0.0622"
"92.1000","153.5032","0.0623"
"92.4000","154.0032","0.0624"
"92.7000","154.5029","0.0624"
"93.0000","155.0033","0.0624"
"93.3000","155.5033","0.0625"
"93.6000","156.0033","0.0625"
"93.9000","156.5032","0.0626"
"94.2000","157.0034","0.0627"
"94.5000","157.5033","0.0628"
"94.8000","158.0032","0.0630"
"95.1000","158.5030","0.0631"
"95.4000","159.0034","0.0631"
"95.7000","159.5034","0.0633"
"96.0000","160.0033","0.0634"
"96.3000","160.5031","0.0635"
"96.6000","161.0032","0.0636"
"96.9000","161.5033","0.0637"
"97.2000","162.0030","0.0638"
"97.5000","162.5029","0.0639"
"97.8000","163.0032","0.0640"
"98.1000","163.5034","0.0641"
"98.4000","164.0033","0.0642"
"98.7000","164.5032","0.0642"
"99.0000","165.0033","0.0643"
"99.3000","165.5034","0.0644"
"99.6000","166.0032","0.0644"
"99.9000","166.5030","0.0645"
"100.2000","167.0033","0.0644"
"100.5000","167.5034","0.0644"
"100.8000","168.0032","0.0644"
"101.1000","168.5031","0.0644"
"101.4000","169.0033","0.0645"
"101.7000","169.5032","0.0646"
"102.0000","170.0032","0.0647"
"102.3000","170.5030","0.0648"
"102.6000","171.0033","0.0648"
"102.9000","171.5034","0.0649"
"103.2000","172.0033","0.0650"
"103.5000","172.5030","0.0651"
"103.8000","173.0034","0.0652"
"104.1000","173.5033","0.0653"
"104.4000","174.0032","0.0654"
"104.7000","174.5030","0.0656"
"105.0000","175.0034","0.0657"
"105.3000","175.5034","0.0657"
"105.6000","176.0032","0.0659"
"105.9000","176.5032","0.0660"
"106.2000","177.0033","0.0662"
"106.5000","177.5033","0.0662"
"106.8000","178.0030","0.0664"
"107.1000","178.5030","0.0665"
"107.4000","179.0033","0.0664"
"107.7000","179.5034","0.0664"
"108.0000","180.0032","0.0664"
"108.3000","180.5032","0.0664"
"108.6000","181.0033","0.0663"
"108.9000","181.5033","0.0663"
"109.2000","182.0032","0.0662"
"109.5000","182.5032","0.0661"
"109.8000","183.0033","0.0661"
"110.1000","183.5034","0.0660"
"110.4000","184.0032","0.0659"
"110.7000","184.5030","0.0659"
"111.0000","185.0032","0.0659"
"111.3000","185.5033","0.0659"
"111.6000","186.0031","0.0660"
"111.9000","186.5030","0.0661"
"112.2000","187.0033","0.0662"
"112.5000","187.5034","0.0664"
"112.8000","188.0033","0.0665"
"113.1000","188.5030","0.0666"
"113.4000","189.0034","0.0667"
"113.7000","189.5033","0.0669"
"114.0000","190.0032","0.0670"
"114.3000","190.5032","0.0671"
"114.6000","191.0033","0.0672"
"114.9000","191.5034","0.0674"
"115.2000","192.0032","0.0676"
"115.5000","192.5030","0.0676"
"115.8000","193.0033","0.0677"
"116.1000","193.5032","0.0677"
"116.4000","194.0031","0.0677"
"116.7000","194.5030","0.0678"
"117.0000","195.0033","0.0678"
"117.3000","195.5034","0.0679"
"117.6000","196.0033","0.0680"
"117.9000","196.5030","0.0681"
"118.2000","197.0033","0.0681"
"118.5000","197.5033","0.0682"
"118.8000","198.0030","0.0682"
"119.1000","198.5032","0.0678"
"119.4000","199.0034","0.0676"
"119.7000","199.5036","0.0678"
"120.0000","200.0032","0.0680"
"120.3000","200.5030","0.0682"
"120.6000","201.0033","0.0684"
"120.9000","201.5032","0.0683"
"121.2000","202.0031","0.0683"
"121.5000","202.5032","0.0683"
"121.8000","203.0033","0.0683"
"122.1000","203.5034","0.0684"
"122.4000","204.0032","0.0685"
"122.7000","204.5032","0.0686"
"123.0000","205.0034","0.0687"
"123.3000","205.5034","0.0688"
"123.6000","206.0032","0.0689"
"123.9000","206.5032","0.0691"
"124.2000","207.0034","0.0692"
"124.5000","207.5033","0.0693"
"124.8000","208.0033","0.0695"
"125.1000","208.5030","0.0696"
"125.4000","209.0033","0.0697"
"125.7000","209.5033","0.0697"
"126.0000","210.0032","0.0698"
"126.3000","210.5030","0.0698"
"126.6000","211.0033","0.0698"
"126.9000","211.5034","0.0698"
"127.2000","212.0033","0.0699"
"127.5000","212.5032","0.0699"
"127.8000","213.0033","0.0700"
"128.1000","213.5033","0.0701"
"128.4000","214.0032","0.0702"
"128.7000","214.5032","0.0702"
"129.0000","215.0033","0.0704"
"129.3000","215.5034","0.0706"
"129.6000","216.0032","0.0707"
"129.9000","216.5030","0.0709"
"130.2000","217.0032","0.0711"
"130.5000","217.5032","0.0713"
"130.8000","218.0030","0.0715"
"131.1000","218.5030","0.0718"
"131.4000","219.0034","0.0720"
"131.7000","219.5034","0.0723"
"132.0000","220.0033","0.0725"
"132.3000","220.5033","0.0726"
"132.6000","221.0034","0.0727"
"132.9000","221.5033","0.0729"
"133.2000","222.0032","0.0731"
"133.5000","222.5032","0.0732"
"133.8000","223.0033","0.0734"
"134.1000","223.5034","0.0736"
"134.4000","224.0032","0.0737"
"134.7000","224.5030","0.0739"
"135.0000","225.0032","0.0741"
"135.3000","225.5032","0.0742"
"135.6000","226.0030","0.0744"
"135.9000","226.5031","0.0746"
"136.2000","227.0033","0.0747"
"136.5000","227.5034","0.0749"
"136.8000","228.0033","0.0750"
"137.1000","228.5030","0.0752"
"137.4000","229.0034","0.0753"
"137.7000","229.5033","0.0755"
"138.0000","230.0032","0.0757"
"138.3000","230.5032","0.0759"
"138.6000","231.0034","0.0761"
"138.9000","231.5034","0.0763"
"139.2000","232.0032","0.0765"
"139.5000","232.5030","0.0768"
"139.8000","233.0032","0.0769"
"140.1000","233.5033","0.0770"
"140.4000","234.0030","0.0772"
"140.7000","234.5031","0.0773"
"141.0000","235.0033","0.0775"
"141.3000","235.5034","0.0776"
"141.6000","236.0033","0.0778"
"141.9000","236.5032","0.0780"
"142.2000","237.0033","0.0782"
"142.5000","237.5033","0.0783"
"142.8000","238.0032","0.0785"
"143.1000","238.5032","0.0786"
"143.4000","239.0033","0.0788"
"143.7000","239.5034","0.0789"
"144.0000","240.0033","0.0791"
"144.3000","240.5032","0.0792"
"144.6000","241.0033","0.0793"
"144.9000","241.5032","0.0794"
"145.2000","242.0032","0.0795"
"145.5000","242.5030","0.0797"
"145.8000","243.0033","0.0798"
"146.1000","243.5034","0.0799"
"146.4000","244.0033","0.0800"
"146.7000","244.5032","0.0801"
"147.0000","245.0034","0.0802"
"147.3000","245.5034","0.0804"
"147.6000","246.0032","0.0805"
"147.9000","246.5032","0.0806"
"148.2000","247.0032","0.0808"
"148.5000","247.5034","0.0809"
"148.8000","248.0032","0.0810"
"149.1000","248.5031","0.0811"
"149.4000","249.0034","0.0813"
"149.7000","249.5033","0.0814"
"150.0000","250.0032","0.0815"
"150.3000","250.5030","0.0815"
"150.6000","251.0031","0.0816"
"150.9000","251.5034","0.0816"
"151.2000","252.0034","0.0817"
"151.5000","252.5032","0.0817"
"151.8000","253.0033","0.0816"
"152.1000","253.5033","0.0816"
"152.4000","254.0031","0.0816"
"152.7000","254.5032","0.0816"
"153.0000","255.0033","0.0817"
"153.3000","255.5034","0.0818"
"153.6000","256.0031","0.0819"
"153.9000","256.5031","0.0820"
"154.2000","257.0033","0.0822"
"154.5000","257.5031","0.0823"
"154.8000","258.0030","0.0825"
"155.1000","258.5031","0.0828"
"155.4000","259.0033","0.0830"
"155.7000","259.5034","0.0832"
"156.0000","260.0031","0.0835"
"156.3000","260.5030","0.0837"
"156.6000","261.0034","0.0840"
"156.9000","261.5034","0.0843"
"157.2000","262.0031","0.0845"
"157.5000","262.5030","0.0847"
"157.8000","263.0033","0.0849"
"158.1000","263.5033","0.0851"
"158.4000","264.0033","0.0852"
"158.7000","264.5030","0.0854"
"159.0000","265.0033","0.0856"
"159.3000","265.5033","0.0858"
"159.6000","266.0032","0.0860"
"159.9000","266.5030","0.0862"
"160.2000","267.0031","0.0864"
"160.5000","267.5034","0.0866"
"160.8000","268.0031","0.0868"
"161.1000","268.5033","0.0869"
"161.4000","269.0034","0.0870"
"161.7000","269.5034","0.0870"
"162.0000","270.0031","0.0868"
"162.3000","270.5030","0.0861"
"162.6000","271.0033","0.0831"
"162.9000","271.5034","0.0818"
"163.2000","272.0030","0.0812"
"163.5000","272.5031","0.0808"
"163.8000","273.0033","0.0806"
"164.1000","273.5033","0.0805"
"164.4000","274.0030","0.0805"
"164.7000","274.5030","0.0806"
"165.0000","275.0031","0.0808"
"165.3000","275.5034","0.0809"
"165.6000","276.0031","0.0811"
"165.9000","276.5031","0.0812"
"166.2000","277.0033","0.0813"
"166.5000","277.5035","0.0815"
"166.8000","278.0031","0.0817"
"167.1000","278.5030","0.0819"
"167.4000","279.0033","0.0820"
"167.7000","279.5034","0.0822"
"168.0000","280.0032","0.0824"
"168.3000","280.5030","0.0825"
"168.6000","281.0033","0.0827"
"168.9000","281.5031","0.0829"
"169.2000","282.0031","0.0831"
"169.5000","282.5030","0.0832"
"169.8000","283.0031","0.0834"
"170.1000","283.5034","0.0836"
"170.4000","284.0033","0.0837"
"170.7000","284.5032","0.0839"
"171.0000","285.0034","0.0840"
"171.3000","285.5034","0.0842"
"171.6000","286.0031","0.0843"
"171.9000","286.5030","0.0844"
"172.2000","287.0033","0.0846"
"172.5000","287.5034","0.0847"
"172.8000","288.0031","0.0848"
"173.1000","288.5030","0.0850"
"173.4000","289.0033","0.0851"
"173.7000","289.5033","0.0852"
"174.0000","290.0030","0.0853"
"174.3000","290.5030","0.0854"
"174.6000","291.0031","0.0855"
"174.9000","291.5034","0.0856"
"175.2000","292.0031","0.0857"
"175.5000","292.5030","0.0858"
"175.8000","293.0033","0.0859"
"176.1000","293.5034","0.0860"
"176.4000","294.0033","0.0861"
"176.7000","294.5031","0.0862"
"177.0000","295.0033","0.0864"
"177.3000","295.5034","0.0865"
"177.6000","296.0033","0.0866"
"177.9000","296.5031","0.0867"
"178.2000","297.0033","0.0868"
"178.5000","297.5033","0.0869"
"178.8000","298.0031","0.0870"
"179.1000","298.5030","0.0871"
"179.4000","299.0031","0.0872"
"179.7000","299.5034","0.0873"
"180.0000","300.0031","0.0874"
"180.3000","300.5030","0.0874"
"180.6000","301.0034","0.0876"
"180.9000","301.5033","0.0878"
"181.2000","302.0033","0.0879"
"181.5000","302.5030","0.0881"
"181.8000","303.0033","0.0884"
"182.1000","303.5034","0.0886"
"182.4000","304.0033","0.0888"
"182.7000","304.5031","0.0889"
"183.0000","305.0033","0.0891"
"183.3000","305.5033","0.0893"
"183.6000","306.0030","0.0894"
"183.9000","306.5030","0.0896"
"184.2000","307.0033","0.0898"
"184.5000","307.5033","0.0900"
"184.8000","308.0033","0.0902"
"185.1000","308.5031","0.0904"
"185.4000","309.0033","0.0907"
"185.7000","309.5033","0.0909"
"186.0000","310.0032","0.0912"
"186.3000","310.5031","0.0914"
"186.6000","311.0033","0.0916"
"186.9000","311.5034","0.0918"
"187.2000","312.0031","0.0920"
"187.5000","312.5030","0.0922"
"187.8000","313.0033","0.0923"
"188.1000","313.5033","0.0925"
"188.4000","314.0030","0.0926"
"188.7000","314.5031","0.0927"
"189.0000","315.0031","0.0929"
"189.3000","315.5034","0.0930"
"189.6000","316.0031","0.0931"
"189.9000","316.5031","0.0933"
"190.2000","317.0034","0.0934"
"190.5000","317.5034","0.0936"
"190.8000","318.0031","0.0938"
"191.1000","318.5030","0.0940"
"191.4000","319.0034","0.0941"
"191.7000","319.5034","0.0943"
"192.0000","320.0033","0.0945"
"192.3000","320.5030","0.0947"
"192.6000","321.0031","0.0949"
"192.9000","321.5033","0.0951"
"193.2000","322.0030","0.0954"
"193.5000","322.5030","0.0956"
"193.8000","323.0033","0.0958"
"194.1000","323.5033","0.0959"
"194.4000","324.0033","0.0961"
"194.7000","324.5031","0.0963"
"195.0000","325.0034","0.0965"
"195.3000","325.5034","0.0968"
"195.6000","326.0030","0.0970"
"195.9000","326.5031","0.0973"
"196.2000","327.0033","0.0975"
"196.5000","327.5034","0.0977"
"196.8000","328.0031","0.0979"
"197.1000","328.5030","0.0981"
"197.4000","329.0033","0.0984"
"197.7000","329.5033","0.0985"
"198.0000","330.0030","0.0987"
"198.3000","330.5030","0.0988"
"198.6000","331.0033","0.0990"
"198.9000","331.5034","0.0991"
"199.2000","332.0033","0.0992"
"199.5000","332.5031","0.0994"
"199.8000","333.0033","0.0996"
"200.1000","333.5034","0.0998"
"200.4000","334.0033","0.1000"
"200.7000","334.5030","0.1002"
"201.0000","335.0033","0.1004"
"201.3000","335.5033","0.1006"
"201.6000","336.0031","0.1009"
"201.9000","336.5031","0.1011"
"202.2000","337.0033","0.1013"
"202.5000","337.5031","0.1014"
"202.8000","338.0030","0.1015"
"203.1000","338.5030","0.1015"
"203.4000","339.0033","0.1014"
"203.7000","339.5034","0.1011"
"204.0000","340.0033","0.1009"
"204.3000","340.5030","0.1008"
"204.6000","341.0034","0.1007"
"204.9000","341.5034","0.1006"
"205.2000","342.0031","0.1005"
"205.5000","342.5030","0.1003"
"205.8000","343.0034","0.1002"
"206.1000","343.5035","0.1002"
"206.4000","344.0031","0.1002"
"206.7000","344.5031","0.1002"
"207.0000","345.0033","0.1002"
"207.3000","345.5033","0.1001"
"207.6000","346.0030","0.1002"
"207.9000","346.5030","0.1002"
"208.2000","347.0032","0.1004"
"208.5000","347.5034","0.1005"
"208.8000","348.0033","0.1007"
"209.1000","348.5031","0.1009"
"209.4000","349.0033","0.1010"
"209.7000","349.5034","0.1012"
"210.0000","350.0031","0.1013"
"210.3000","350.5031","0.1013"
"210.6000","351.0033","0.1012"
"210.9000","351.5033","0.1010"
"211.2000","352.0031","0.1009"
"211.5000","352.5030","0.1009"
"211.8000","353.0033","0.1010"
"212.1000","353.5033","0.1011"
"212.4000","354.0030","0.1012"
"212.7000","354.5030","0.1013"
"213.0000","355.0033","0.1014"
"213.3000","355.5034","0.1016"
"213.6000","356.0031","0.1017"
"213.9000","356.5032","0.1019"
"214.2000","357.0034","0.1021"
"214.5000","357.5034","0.1021"
"214.8000","358.0031","0.1022"
"215.1000","358.5030","0.1023"
"215.4000","359.0033","0.1024"
"215.7000","359.5034","0.1025"
"216.0000","360.0033","0.1027"
"216.3000","360.5030","0.1030"
"216.6000","361.0033","0.1032"
"216.9000","361.5033","0.1035"
"217.2000","362.0030","0.1037"
"217.5000","362.5030","0.1040"
"217.8000","363.0031","0.1042"
"218.1000","363.5033","0.1044"
"218.4000","364.0033","0.1046"
"218.7000","364.5033","0.1047"
"219.0000","365.0033","0.1049"
"219.3000","365.5034","0.1051"
"219.6000","366.0031","0.1052"
"219.9000","366.5031","0.1053"
"220.2000","367.0033","0.1054"
"220.5000","367.5034","0.1054"
"220.8000","368.0032","0.1054"
"221.1000","368.5031","0.1054"
"221.4000","369.0033","0.1054"
"221.7000","369.5033","0.1054"
"222.0000","370.0031","0.1055"
"222.3000","370.5030","0.1054"
"222.6000","371.0033","0.1054"
"222.9000","371.5033","0.1053"
"223.2000","372.0033","0.1052"
"223.5000","372.5031","0.1050"
"223.8000","373.0033","0.1050"
"224.1000","373.5034","0.1049"
"224.4000","374.0031","0.1048"
"224.7000","374.5031","0.1047"
"225.0000","375.0033","0.1045"
"225.3000","375.5034","0.1044"
"225.6000","376.0033","0.1040"
"225.9000","376.5030","0.1036"
"226.2000","377.0033","0.1030"
"226.5000","377.5033","0.1020"
"226.8000","378.0031","0.0981"
"227.1000","378.5031","0.0961"
"227.4000","379.0033","0.0950"
"227.7000","379.5034","0.0943"
"228.0000","380.0031","0.0939"
"228.3000","380.5031","0.0934"
"228.6000","381.0034","0.0931"
"228.9000","381.5033","0.0930"
"229.2000","382.0031","0.0929"
"229.5000","382.5031","0.0928"
"229.8000","383.0034","0.0928"
"230.1000","383.5034","0.0928"
"230.4000","384.0031","0.0928"
"230.7000","384.5031","0.0928"
"231.0000","385.0033","0.0929"
"231.3000","385.5034","0.0928"
"231.6000","386.0030","0.0927"
"231.9000","386.5030","0.0925"
"232.2000","387.0033","0.0920"
"232.5000","387.5034","0.0887"
"232.8000","388.0033","0.0838"
"233.1000","388.5031","0.0832"
"233.4000","389.0034","0.0832"
"233.7000","389.5034","0.0834"
"234.0000","390.0031","0.0838"
"234.3000","390.5031","0.0842"
"234.6000","391.0033","0.0848"
"234.9000","391.5033","0.0853"
"235.2000","392.0033","0.0858"
"235.5000","392.5030","0.0864"
"235.8000","393.0033","0.0869"
"236.1000","393.5032","0.0875"
"236.4000","394.0031","0.0881"
"236.7000","394.5030","0.0886"
"237.0000","395.0031","0.0892"
"237.3000","395.5033","0.0897"
"237.6000","396.0031","0.0902"
"237.9000","396.5031","0.0907"
"238.2000","397.0033","0.0912"
"238.5000","397.5033","0.0916"
"238.8000","398.0031","0.0921"
"239.1000","398.5031","0.0925"
"239.4000","399.0034","0.0929"
"239.7000","399.5036","0.0933"
"240.0000","400.0031","0.0937"
"240.3000","400.5030","0.0940"
"240.6000","401.0031","0.0944"
"240.9000","401.5033","0.0947"
"241.2000","402.0030","0.0950"
"241.5000","402.5031","0.0953"
"241.8000","403.0031","0.0956"
"242.1000","403.5033","0.0958"
"242.4000","404.0033","0.0961"
"242.7000","404.5031","0.0963"
"243.0000","405.0034","0.0965"
"243.3000","405.5033","0.0967"
"243.6000","406.0031","0.0969"
"243.9000","406.5031","0.0970"
"244.2000","407.0033","0.0972"
"244.5000","407.5034","0.0973"
"244.8000","408.0033","0.0975"
"245.1000","408.5030","0.0977"
"245.4000","409.0033","0.0978"
"245.7000","409.5033","0.0979"
"246.0000","410.0030","0.0980"
"246.3000","410.5029","0.0981"
"246.6000","411.0033","0.0982"
"246.9000","411.5033","0.0982"
"247.2000","412.0032","0.0982"
"247.5000","412.5031","0.0982"
"247.8000","413.0034","0.0982"
"248.1000","413.5034","0.0980"
"248.4000","414.0033","0.0971"
"248.7000","414.5031","0.0961"
"249.0000","415.0033","0.0961"
"249.3000","415.5035","0.0963"
"249.6000","416.0033","0.0967"
"249.9000","416.5030","0.0971"
"250.2000","417.0031","0.0976"
"250.5000","417.5034","0.0981"
"250.8000","418.0031","0.0987"
"251.1000","418.5030","0.0991"
"251.4000","419.0032","0.0995"
"251.7000","419.5033","0.0998"
"252.0000","420.0033","0.1001"
"252.3000","420.5031","0.1002"
"252.6000","421.0033","0.1001"
"252.9000","421.5033","0.0999"
"253.2000","422.0031","0.0997"
"253.5000","422.5031","0.0995"
"253.8000","423.0033","0.0995"
"254.1000","423.5034","0.0996"
"254.4000","424.0031","0.0997"
"254.7000","424.5030","0.0999"
"255.0000","425.0033","0.1002"
"255.3000","425.5031","0.1005"
"255.6000","426.0030","0.1008"
"255.9000","426.5030","0.1012"
"256.2000","427.0033","0.1015"
"256.5000","427.5034","0.1018"
"256.8000","428.0033","0.1022"
"257.1000","428.5031","0.1024"
"257.4000","429.0033","0.1027"
"257.7000","429.5035","0.1028"
"258.0000","430.0031","0.1030"
"258.3000","430.5032","0.1032"
"258.6000","431.0033","0.1033"
"258.9000","431.5034","0.1035"
"259.2000","432.0033","0.1036"
"259.5000","432.5031","0.1038"
"259.8000","433.0033","0.1040"
"260.1000","433.5031","0.1041"
"260.4000","434.0031","0.1043"
"260.7000","434.5031","0.1045"
"261.0000","435.0031","0.1047"
"261.3000","435.5034","0.1049"
"261.6000","436.0031","0.1051"
"261.9000","436.5031","0.1053"
"262.2000","437.0033","0.1054"
"262.5000","437.5035","0.1055"
"262.8000","438.0031","0.1057"
"263.1000","438.5031","0.1059"
"263.4000","439.0033","0.1062"
"263.7000","439.5034","0.1065"
"264.0000","440.0030","0.1069"
"264.3000","440.5030","0.1073"
"264.6000","441.0031","0.1078"
"264.9000","441.5031","0.1083"
"265.2000","442.0030","0.1088"
"265.5000","442.5030","0.1093"
"265.8000","443.0031","0.1099"
"266.1000","443.5034","0.1104"
"266.4000","444.0033","0.1110"
"266.7000","444.5031","0.1117"
"267.0000","445.0033","0.1122"
"267.3000","445.5034","0.1129"
"267.6000","446.0033","0.1135"
"267.9000","446.5031","0.1141"
"268.2000","447.0033","0.1147"
"268.5000","447.5034","0.1154"
"268.8000","448.0031","0.1160"
"269.1000","448.5031","0.1166"
"269.4000","449.0033","0.1172"
"269.7000","449.5031","0.1178"
"270.0000","450.0031","0.1184"
"270.3000","450.5030","0.1189"
"270.6000","451.0033","0.1195"
"270.9000","451.5033","0.1200"
"271.2000","452.0033","0.1206"
"271.5000","452.5031","0.1211"
"271.8000","453.0034","0.1216"
"272.1000","453.5033","0.1221"
"272.4000","454.0031","0.1226"
"272.7000","454.5030","0.1231"
"273.0000","455.0033","0.1236"
"273.3000","455.5035","0.1241"
"273.6000","456.0032","0.1246"
"273.9000","456.5031","0.1251"
"274.2000","457.0031","0.1256"
"274.5000","457.5033","0.1260"
"274.8000","458.0031","0.1264"
"275.1000","458.5030","0.1268"
"275.4000","459.0033","0.1272"
"275.7000","459.5034","0.1277"
"276.0000","460.0033","0.1280"
"276.3000","460.5033","0.1284"
"276.6000","461.0034","0.1288"
"276.9000","461.5034","0.1292"
"277.2000","462.0031","0.1296"
"277.5000","462.5030","0.1300"
"277.8000","463.0034","0.1304"
"278.1000","463.5034","0.1307"
"278.4000","464.0031","0.1311"
"278.7000","464.5031","0.1314"
"279.0000","465.0033","0.1317"
"279.3000","465.5033","0.1320"
"279.6000","466.0030","0.1322"
"279.9000","466.5030","0.1325"
"280.2000","467.0033","0.1328"
"280.5000","467.5034","0.1330"
"280.8000","468.0033","0.1333"
"281.1000","468.5031","0.1336"
"281.4000","469.0034","0.1339"
"281.7000","469.5034","0.1341"
"282.0000","470.0031","0.1344"
"282.3000","470.5030","0.1347"
"282.6000","471.0033","0.1349"
"282.9000","471.5034","0.1352"
"283.2000","472.0033","0.1354"
"283.5000","472.5031","0.1356"
"283.8000","473.0031","0.1358"
"284.1000","473.5031","0.1360"
"284.4000","474.0030","0.1362"
"284.7000","474.5030","0.1365"
"285.0000","475.0031","0.1367"
"285.3000","475.5033","0.1369"
"285.6000","476.0033","0.1370"
"285.9000","476.5033","0.1372"
"286.2000","477.0034","0.1373"
"286.5000","477.5034","0.1373"
"286.8000","478.0031","0.1371"
"287.1000","478.5031","0.1370"
"287.4000","479.0033","0.1369"
"287.7000","479.5034","0.1367"
"288.0000","480.0031","0.1366"
"288.3000","480.5030","0.1364"
"288.6000","481.0033","0.1364"
"288.9000","481.5033","0.1362"
"289.2000","482.0030","0.1362"
"289.5000","482.5029","0.1361"
"289.8000","483.0033","0.1359"
"290.1000","483.5034","0.1358"
"290.4000","484.0033","0.1357"
"290.7000","484.5031","0.1356"
"291.0000","485.0034","0.1355"
"291.3000","485.5033","0.1354"
"291.6000","486.0031","0.1354"
"291.9000","486.5031","0.1354"
"292.2000","487.0033","0.1353"
"292.5000","487.5034","0.1353"
"292.8000","488.0031","0.1353"
"293.1000","488.5031","0.1354"
"293.4000","489.0033","0.1356"
"293.7000","489.5031","0.1357"
"294.0000","490.0031","0.1359"
"294.3000","490.5030","0.1362"
"294.6000","491.0031","0.1364"
"294.9000","491.5034","0.1366"
"295.2000","492.0031","0.1369"
"295.5000","492.5031","0.1372"
"295.8000","493.0034","0.1374"
"296.1000","493.5034","0.1377"
"296.4000","494.0031","0.1379"
"296.7000","494.5030","0.1382"
"297.0000","495.0033","0.1385"
"297.3000","495.5034","0.1388"
"297.6000","496.0031","0.1391"
"297.9000","496.5030","0.1394"
"298.2000","497.0033","0.1397"
"298.5000","497.5033","0.1399"
"298.8000","498.0031","0.1402"
"299.1000","498.5030","0.1405"
"299.4000","499.0031","0.1408"
"299.7000","499.5033","0.1410"
"300.0000","500.0032","0.1413"
"300.3000","500.5031","0.1417"
"300.6000","501.0034","0.1419"
"300.9000","501.5032","0.1422"
"301.2000","502.0033","0.1425"
"301.5000","502.5031","0.1428"
"301.8000","503.0032","0.1431"
"302.1000","503.5034","0.1435"
"302.4000","504.0032","0.1438"
"302.7000","504.5031","0.1441"
"303.0000","505.0034","0.1444"
"303.3000","505.5032","0.1447"
"303.6000","506.0031","0.1450"
"303.9000","506.5031","0.1452"
"304.2000","507.0032","0.1455"
"304.5000","507.5032","0.1458"
"304.8000","508.0032","0.1460"
"305.1000","508.5033","0.1463"
"305.4000","509.0033","0.1465"
"305.7000","509.5034","0.1467"
"306.0000","510.0032","0.1470"
"306.3000","510.5031","0.1473"
"306.6000","511.0033","0.1475"
"306.9000","511.5033","0.1477"
"307.2000","512.0031","0.1479"
"307.5000","512.5031","0.1481"
"307.8000","513.0032","0.1483"
"308.1000","513.5034","0.1485"
"308.4000","514.0031","0.1486"
"308.7000","514.5029","0.1486"
"309.0000","515.0031","0.1487"
"309.3000","515.5034","0.1487"
"309.6000","516.0032","0.1487"
"309.9000","516.5031","0.1487"
"310.2000","517.0034","0.1487"
"310.5000","517.5035","0.1487"
"310.8000","518.0032","0.1486"
"311.1000","518.5031","0.1485"
"311.4000","519.0034","0.1485"
"311.7000","519.5034","0.1485"
"312.0000","520.0032","0.1485"
"312.3000","520.5030","0.1486"
"312.6000","521.0034","0.1487"
"312.9000","521.5034","0.1488"
"313.2000","522.0032","0.1489"
"313.5000","522.5029","0.1491"
"313.8000","523.0032","0.1492"
"314.1000","523.5035","0.1495"
"314.4000","524.0032","0.1498"
"314.7000","524.5031","0.1500"
"315.0000","525.0034","0.1504"
"315.3000","525.5035","0.1507"
"315.6000","526.0032","0.1510"
"315.9000","526.5031","0.1514"
"316.2000","527.0032","0.1517"
"316.5000","527.5034","0.1521"
"316.8000","528.0031","0.1525"
"317.1000","528.5031","0.1528"
"317.4000","529.0032","0.1531"
"317.7000","529.5034","0.1534"
"318.0000","530.0031","0.1537"
"318.3000","530.5031","0.1539"
"318.6000","531.0032","0.1541"
"318.9000","531.5034","0.1542"
"319.2000","532.0034","0.1543"
"319.5000","532.5031","0.1544"
"319.8000","533.0034","0.1543"
"320.1000","533.5035","0.1543"
"320.4000","534.0032","0.1541"
"320.7000","534.5031","0.1539"
"321.0000","535.0034","0.1536"
"321.3000","535.5034","0.1533"
"321.6000","536.0032","0.1529"
"321.9000","536.5031","0.1525"
"322.2000","537.0034","0.1519"
"322.5000","537.5032","0.1514"
"322.8000","538.0031","0.1508"
"323.1000","538.5030","0.1500"
"323.4000","539.0032","0.1493"
"323.7000","539.5034","0.1487"
"324.0000","540.0032","0.1481"
"324.3000","540.5032","0.1475"
"324.6000","541.0034","0.1470"
"324.9000","541.5035","0.1466"
"325.2000","542.0032","0.1462"
"325.5000","542.5031","0.1458"
"325.8000","543.0034","0.1453"
"326.1000","543.5034","0.1446"
"326.4000","544.0032","0.1433"
"326.7000","544.5031","0.1393"
"327.0000","545.0031","0.1364"
"327.3000","545.5034","0.1352"
"327.6000","546.0032","0.1346"
"327.9000","546.5031","0.1343"
"328.2000","547.0031","0.1343"
"328.5000","547.5034","0.1345"
"328.8000","548.0032","0.1348"
"329.1000","548.5031","0.1352"
"329.4000","549.0034","0.1357"
"329.7000","549.5032","0.1362"
"330.0000","550.0032","0.1368"
"330.3000","550.5031","0.1374"
"330.6000","551.0034","0.1380"
"330.9000","551.5034","0.1387"
"331.2000","552.0032","0.1394"
"331.5000","552.5031","0.1401"
"331.8000","553.0032","0.1408"
"332.1000","553.5034","0.1414"
"332.4000","554.0031","0.1421"
"332.7000","554.5031","0.1428"
"333.0000","555.0031","0.1433"
"333.3000","555.5035","0.1438"
"333.6000","556.0034","0.1441"
"333.9000","556.5031","0.1426"
"334.2000","557.0035","0.1402"
"334.5000","557.5032","0.1361"
"334.8000","558.0032","0.1327"
"335.1000","558.5031","0.1306"
"335.4000","559.0034","0.1293"
"335.7000","559.5034","0.1281"
"336.0000","560.0032","0.1261"
"336.3000","560.5031","0.1225"
"336.6000","561.0032","0.1191"
"336.9000","561.5032","0.1163"
"337.2000","562.0029","0.1150"
"337.5000","562.5032","0.1144"
"337.8000","563.0032","0.1141"
"338.1000","563.5034","0.1142"
"338.4000","564.0032","0.1149"
"338.7000","564.5031","0.1158"
"339.0000","565.0032","0.1170"
"339.3000","565.5034","0.1184"
"339.6000","566.0032","0.1198"
"339.9000","566.5031","0.1215"
"340.2000","567.0032","0.1232"
"340.5000","567.5035","0.1249"
"340.8000","568.0031","0.1267"
"341.1000","568.5030","0.1285"
"341.4000","569.0032","0.1303"
"341.7000","569.5034","0.1321"
"342.0000","570.0031","0.1339"
"342.3000","570.5031","0.1357"
"342.6000","571.0032","0.1376"
"342.9000","571.5034","0.1394"
"343.2000","572.0032","0.1412"
"343.5000","572.5031","0.1429"
"343.8000","573.0034","0.1447"
"344.1000","573.5032","0.1464"
"344.4000","574.0032","0.1482"
"344.7000","574.5031","0.1499"
"345.0000","575.0032","0.1515"
"345.3000","575.5034","0.1531"
"345.6000","576.0032","0.1547"
"345.9000","576.5030","0.1564"
"346.2000","577.0032","0.1579"
"346.5000","577.5032","0.1594"
"346.8000","578.0030","0.1608"
"347.1000","578.5029","0.1623"
"347.4000","579.0032","0.1636"
"347.7000","579.5034","0.1650"
"348.0000","580.0032","0.1663"
"348.3000","580.5031","0.1675"
"348.6000","581.0034","0.1687"
"348.9000","581.5035","0.1698"
"349.2000","582.0032","0.1709"
"349.5000","582.5032","0.1719"
"349.8000","583.0032","0.1729"
"350.1000","583.5034","0.1739"
"350.4000","584.0032","0.1748"
"350.7000","584.5031","0.1757"
"351.0000","585.0032","0.1765"
"351.3000","585.5032","0.1774"
"351.6000","586.0031","0.1782"
"351.9000","586.5031","0.1791"
"352.2000","587.0032","0.1798"
"352.5000","587.5034","0.1806"
"352.8000","588.0032","0.1813"
"353.1000","588.5031","0.1821"
"353.4000","589.0034","0.1828"
"353.7000","589.5034","0.1834"
"354.0000","590.0031","0.1841"
"354.3000","590.5031","0.1848"
"354.6000","591.0034","0.1855"
"354.9000","591.5034","0.1861"
"355.2000","592.0032","0.1867"
"355.5000","592.5031","0.1873"
"355.8000","593.0034","0.1879"
"356.1000","593.5031","0.1884"
"356.4000","594.0031","0.1890"
"356.7000","594.5030","0.1895"
"357.0000","595.0031","0.1899"
"357.3000","595.5034","0.1904"
"357.6000","596.0032","0.1909"
"357.9000","596.5031","0.1913"
"358.2000","597.0034","0.1917"
"358.5000","597.5035","0.1920"
"358.8000","598.0032","0.1924"
"359.1000","598.5031","0.1928"
"359.4000","599.0032","0.1931"
"359.7000","599.5035","0.1934"
"360.0000","600.0032","0.1937"
"360.3000","600.5031","0.1939"
"360.6000","601.0032","0.1942"
"360.9000","601.5032","0.1945"
"361.2000","602.0031","0.1947"
"361.5000","602.5029","0.1950"
"361.8000","603.0031","0.1953"
"362.1000","603.5034","0.1955"
"362.4000","604.0032","0.1957"
"362.7000","604.5031","0.1959"
"363.0000","605.0034","0.1961"
"363.3000","605.5035","0.1964"
"363.6000","606.0032","0.1967"
"363.9000","606.5031","0.1969"
"364.2000","607.0034","0.1972"
"364.5000","607.5034","0.1975"
"364.8000","608.0032","0.1978"
"365.1000","608.5030","0.1982"
"365.4000","609.0034","0.1984"
"365.7000","609.5032","0.1986"
"366.0000","610.0031","0.1989"
"366.3000","610.5029","0.1991"
"366.6000","611.0032","0.1994"
"366.9000","611.5034","0.1997"
"367.2000","612.0032","0.1999"
"367.5000","612.5031","0.2002"
"367.8000","613.0034","0.2005"
"368.1000","613.5035","0.2007"
"368.4000","614.0032","0.2009"
"368.7000","614.5031","0.2012"
"369.0000","615.0032","0.2015"
"369.3000","615.5034","0.2018"
"369.6000","616.0032","0.2020"
"369.9000","616.5031","0.2022"
"370.2000","617.0032","0.2025"
"370.5000","617.5032","0.2028"
"370.8000","618.0031","0.2030"
"371.1000","618.5031","0.2033"
"371.4000","619.0031","0.2035"
"371.7000","619.5034","0.2038"
"372.0000","620.0032","0.2040"
"372.3000","620.5031","0.2042"
"372.6000","621.0034","0.2044"
"372.9000","621.5035","0.2047"
"373.2000","622.0032","0.2049"
"373.5000","622.5031","0.2052"
"373.8000","623.0032","0.2055"
"374.1000","623.5034","0.2057"
"374.4000","624.0031","0.2060"
"374.7000","624.5031","0.2063"
"375.0000","625.0032","0.2066"
"375.3000","625.5032","0.2069"
"375.6000","626.0032","0.2072"
"375.9000","626.5031","0.2075"
"376.2000","627.0032","0.2077"
"376.5000","627.5034","0.2080"
"376.8000","628.0032","0.2083"
"377.1000","628.5031","0.2086"
"377.4000","629.0034","0.2089"
"377.7000","629.5034","0.2092"
"378.0000","630.0032","0.2096"
"378.3000","630.5032","0.2099"
"378.6000","631.0034","0.2102"
"378.9000","631.5035","0.2105"
"379.2000","632.0032","0.2108"
"379.5000","632.5031","0.2111"
"379.8000","633.0032","0.2115"
"380.1000","633.5032","0.2118"
"380.4000","634.0031","0.2121"
"380.7000","634.5029","0.2125"
"381.0000","635.0032","0.2128"
"381.3000","635.5035","0.2131"
"381.6000","636.0032","0.2134"
"381.9000","636.5031","0.2137"
"382.2000","637.0034","0.2141"
"382.5000","637.5035","0.2144"
"382.8000","638.0031","0.2147"
"383.1000","638.5031","0.2150"
"383.4000","639.0032","0.2153"
"383.7000","639.5034","0.2155"
"384.0000","640.0032","0.2157"
"384.3000","640.5030","0.2158"
"384.6000","641.0032","0.2158"
"384.9000","641.5034","0.2159"
"385.2000","642.0031","0.2158"
"385.5000","642.5034","0.1406"
"385.8000","643.0034","0.1392"
"386.1000","643.5034","0.1391"
"386.4000","644.0032","0.1391"
"386.7000","644.5032","0.1392"
"387.0000","645.0034","0.1394"
"387.3000","645.5034","0.1397"
"387.6000","646.0032","0.1402"
"387.9000","646.5032","0.1408"
"388.2000","647.0034","0.1414"
"388.5000","647.5032","0.1421"
"388.8000","648.0031","0.1428"
"389.1000","648.5029","0.1434"
"389.4000","649.0034","0.1440"
"389.7000","649.5032","0.1447"
"390.0000","650.0031","0.1452"
"390.3000","650.5031","0.1459"
"390.6000","651.0032","0.1464"
"390.9000","651.5034","0.1470"
"391.2000","652.0032","0.1475"
"391.5000","652.5031","0.1480"
"391.8000","653.0034","0.1486"
"392.1000","653.5034","0.1491"
"392.4000","654.0032","0.1497"
"392.7000","654.5031","0.1502"
"393.0000","655.0034","0.1507"
"393.3000","655.5034","0.1512"
"393.6000","656.0032","0.1519"
"393.9000","656.5031","0.1523"
"394.2000","657.0032","0.1528"
"394.5000","657.5031","0.1532"
"394.8000","658.0031","0.1536"
"395.1000","658.5032","0.1540"
"395.4000","659.0032","0.1545"
"395.7000","659.5032","0.1548"
"396.0000","660.0032","0.1552"
"396.3000","660.5032","0.1555"
"396.6000","661.0034","0.1559"
"396.9000","661.5034","0.1562"
"397.2000","662.0032","0.1565"
"397.5000","662.5031","0.1569"
"397.8000","663.0032","0.1571"
"398.1000","663.5034","0.1574"
"398.4000","664.0032","0.1577"
"398.7000","664.5030","0.1580"
"399.0000","665.0034","0.1582"
"399.3000","665.5034","0.1584"
"399.6000","666.0032","0.1587"
"399.9000","666.5031","0.1590"
"400.2000","667.0032","0.1592"
"400.5000","667.5032","0.1595"
"400.8000","668.0032","0.1597"
"401.1000","668.5031","0.1600"
"401.4000","669.0034","0.1603"
"401.7000","669.5035","0.1605"
"402.0000","670.0034","0.1607"
"402.3000","670.5031","0.1610"
"402.6000","671.0034","0.1612"
"402.9000","671.5035","0.1614"
"403.2000","672.0032","0.1617"
"403.5000","672.5031","0.1619"
"403.8000","673.0032","0.1621"
"404.1000","673.5034","0.1622"
"404.4000","674.0031","0.1625"
"404.7000","674.5031","0.1627"
"405.0000","675.0032","0.1628"
"405.3000","675.5034","0.1630"
"405.6000","676.0032","0.1632"
"405.9000","676.5031","0.1634"
"406.2000","677.0034","0.1635"
"406.5000","677.5034","0.1637"
"406.8000","678.0031","0.1639"
"407.1000","678.5031","0.1640"
"407.4000","679.0032","0.1642"
"407.7000","679.5034","0.1644"
"408.0000","680.0031","0.1646"
"408.3000","680.5029","0.1647"
"408.6000","681.0032","0.1649"
"408.9000","681.5032","0.1651"
"409.2000","682.0031","0.1653"
"409.5000","682.5031","0.1655"
"409.8000","683.0032","0.1656"
"410.1000","683.5034","0.1658"
"410.4000","684.0032","0.1660"
"410.7000","684.5032","0.1662"
"411.0000","685.0034","0.1663"
"411.3000","685.5035","0.1665"
"411.6000","686.0032","0.1667"
"411.9000","686.5032","0.1669"
"412.2000","687.0034","0.1671"
"412.5000","687.5034","0.1672"
"412.8000","688.0032","0.1674"
"413.1000","688.5031","0.1676"
"413.2500","688.7536","0.1004"